"subNum","trial_number","cuedAR","uncuedAR","responseAR","response_error","rt","shape_org","cueType","e1_motion_dir","e2_motion_dir","round_number","coherence","cued_motion_dir","uncued_motion_dir","arDiff","pairAvg","cuedMotDir","pairGlobalOrg","pairMotDirSameness","pairMotDirSameness_wRandom","pairMotSame","pairMotDiff","pairMotRandom","pairSameARCat","pairAR_sameCondition","motDirComp","pairMotCoherent","pairMotDiago","id","corrCoeff","corrPval"
16592,24,-0.46332,-0.46332,0.27799,0.74131,3337,3,2,90,270,0,1,270,90,0,-0.46332,1,1,0,0,0,1,0,1,1,3,1,0,"o1",0.524099917712848,0.00000000000000000000000000000000000107904274297885
16592,114,-0.46332,-0.46332,-0.139,0.32432,1851,2,2,270,270,1,0,9999,9999,0,-0.46332,2,0,1,2,0,0,1,1,1,2,0,1,"o1",0.524099917712848,0.00000000000000000000000000000000000107904274297885
16592,82,-0.46332,-0.46332,-0.23166,0.23166,3622,1,1,270,180,0,0,9999,9999,0,-0.46332,2,0,1,2,0,0,1,1,1,2,0,1,"o1",0.524099917712848,0.00000000000000000000000000000000000107904274297885
16592,103,-0.46332,-0.46332,-0.23166,0.23166,1778,3,2,90,180,0,1,180,90,0,-0.46332,0,1,0,0,0,1,0,1,1,3,1,0,"o1",0.524099917712848,0.00000000000000000000000000000000000107904274297885
16592,15,-0.46332,-0.46332,-0.23166,0.23166,2536,4,1,0,0,2,0,9999,9999,0,-0.46332,2,1,1,2,0,0,1,1,1,2,0,1,"o1",0.524099917712848,0.00000000000000000000000000000000000107904274297885
16592,130,-0.46332,-0.46332,-0.23166,0.23166,1638,3,2,0,270,2,1,270,0,0,-0.46332,1,1,0,0,0,1,0,1,1,3,1,0,"o1",0.524099917712848,0.00000000000000000000000000000000000107904274297885
16592,66,-0.46332,-0.46332,-0.27799,0.18533,1875,1,1,0,0,0,1,0,0,0,-0.46332,0,0,1,1,1,0,0,1,1,0,1,1,"o1",0.524099917712848,0.00000000000000000000000000000000000107904274297885
16592,1,-0.46332,-0.46332,-0.27799,0.18533,3760,1,1,0,0,2,1,0,0,0,-0.46332,0,0,1,1,1,0,0,1,1,0,1,1,"o1",0.524099917712848,0.00000000000000000000000000000000000107904274297885
16592,120,-0.46332,-0.46332,-0.37066,0.09266,2257,3,1,90,0,1,1,90,0,0,-0.46332,1,1,0,0,0,1,0,1,1,3,1,0,"o1",0.524099917712848,0.00000000000000000000000000000000000107904274297885
16592,120,-0.46332,-0.46332,-0.37066,0.09266,2257,3,1,90,0,1,1,90,0,0,-0.46332,1,1,0,0,0,1,0,1,1,3,1,0,"o1",0.524099917712848,0.00000000000000000000000000000000000107904274297885
16592,145,-0.46332,-0.46332,-0.41699,0.04633,2180,3,1,270,180,2,1,270,180,0,-0.46332,1,1,0,0,0,1,0,1,1,3,1,0,"o1",0.524099917712848,0.00000000000000000000000000000000000107904274297885
16592,53,-0.46332,-0.46332,-0.55598,-0.09266,2801,4,2,90,270,1,1,270,90,0,-0.46332,1,1,0,0,0,1,0,1,1,3,1,0,"o1",0.524099917712848,0.00000000000000000000000000000000000107904274297885
16592,37,-0.41699,-0.41699,0.23166,0.64865,24826,1,1,270,180,1,0,9999,9999,0,-0.41699,2,0,1,2,0,0,1,1,1,2,0,1,"o1",0.524099917712848,0.00000000000000000000000000000000000107904274297885
16592,68,-0.41699,-0.41699,0.13899,0.55598,4216,2,2,90,270,1,1,270,90,0,-0.41699,1,0,0,0,0,1,0,1,1,3,1,0,"o1",0.524099917712848,0.00000000000000000000000000000000000107904274297885
16592,144,-0.41699,-0.41699,0.13899,0.55598,1489,3,2,270,180,2,1,180,270,0,-0.41699,0,1,0,0,0,1,0,1,1,3,1,0,"o1",0.524099917712848,0.00000000000000000000000000000000000107904274297885
16592,40,-0.41699,-0.41699,0,0.41699,3122,2,1,180,90,0,0,9999,9999,0,-0.41699,2,0,1,2,0,0,1,1,1,2,0,1,"o1",0.524099917712848,0.00000000000000000000000000000000000107904274297885
16592,64,-0.41699,-0.41699,-0.32432,0.09266,3517,3,1,0,270,2,0,9999,9999,0,-0.41699,2,1,1,2,0,0,1,1,1,2,0,1,"o1",0.524099917712848,0.00000000000000000000000000000000000107904274297885
16592,75,-0.41699,-0.41699,-0.37066,0.04633,2853,2,2,270,0,0,0,9999,9999,0,-0.41699,2,0,1,2,0,0,1,1,1,2,0,1,"o1",0.524099917712848,0.00000000000000000000000000000000000107904274297885
16592,139,-0.41699,-0.41699,-0.41699,0,1879,4,2,0,270,2,1,270,0,0,-0.41699,1,1,0,0,0,1,0,1,1,3,1,0,"o1",0.524099917712848,0.00000000000000000000000000000000000107904274297885
16592,53,-0.41699,-0.41699,-0.46332,-0.04633,2666,3,2,180,180,0,0,9999,9999,0,-0.41699,2,1,1,2,0,0,1,1,1,2,0,1,"o1",0.524099917712848,0.00000000000000000000000000000000000107904274297885
16592,109,-0.37066,-0.37066,0.46332,0.83397,1832,1,1,90,180,0,1,90,180,0,-0.37066,1,0,0,0,0,1,0,1,1,3,1,0,"o1",0.524099917712848,0.00000000000000000000000000000000000107904274297885
16592,127,-0.37066,-0.37066,0.37065,0.74131,2098,1,1,270,180,1,0,9999,9999,0,-0.37066,2,0,1,2,0,0,1,1,1,2,0,1,"o1",0.524099917712848,0.00000000000000000000000000000000000107904274297885
16592,127,-0.37066,-0.37066,0.37065,0.74131,2098,1,1,270,180,1,0,9999,9999,0,-0.37066,2,0,1,2,0,0,1,1,1,2,0,1,"o1",0.524099917712848,0.00000000000000000000000000000000000107904274297885
16592,38,-0.37066,-0.37066,0.04633,0.41699,3415,3,2,270,90,0,1,90,270,0,-0.37066,1,1,0,0,0,1,0,1,1,3,1,0,"o1",0.524099917712848,0.00000000000000000000000000000000000107904274297885
16592,3,-0.37066,-0.37066,-0.23166,0.139,3061,1,2,180,90,0,1,90,180,0,-0.37066,1,0,0,0,0,1,0,1,1,3,1,0,"o1",0.524099917712848,0.00000000000000000000000000000000000107904274297885
16592,57,-0.37066,-0.37066,-0.27799,0.09266,3723,1,1,90,270,2,0,9999,9999,0,-0.37066,2,0,1,2,0,0,1,1,1,2,0,1,"o1",0.524099917712848,0.00000000000000000000000000000000000107904274297885
16592,77,-0.37066,-0.37066,-0.32432,0.04633,1603,4,1,0,180,2,1,0,180,0,-0.37066,0,1,0,0,0,1,0,1,1,3,1,0,"o1",0.524099917712848,0.00000000000000000000000000000000000107904274297885
16592,137,-0.37066,-0.37066,-0.32432,0.04633,1940,2,2,180,90,2,0,9999,9999,0,-0.37066,2,0,1,2,0,0,1,1,1,2,0,1,"o1",0.524099917712848,0.00000000000000000000000000000000000107904274297885
16592,42,-0.37066,-0.37066,-0.50965,-0.139,2661,4,1,180,180,0,0,9999,9999,0,-0.37066,2,1,1,2,0,0,1,1,1,2,0,1,"o1",0.524099917712848,0.00000000000000000000000000000000000107904274297885
16592,113,-0.32432,-0.32432,-0.09266,0.23166,3136,2,1,180,270,0,1,180,270,0,-0.32432,0,0,0,0,0,1,0,1,1,3,1,0,"o1",0.524099917712848,0.00000000000000000000000000000000000107904274297885
16592,36,-0.32432,-0.32432,-0.18533,0.139,6924,1,1,270,0,1,0,9999,9999,0,-0.32432,2,0,1,2,0,0,1,1,1,2,0,1,"o1",0.524099917712848,0.00000000000000000000000000000000000107904274297885
16592,120,-0.32432,-0.32432,-0.27799,0.04633,3185,4,1,180,90,2,0,9999,9999,0,-0.32432,2,1,1,2,0,0,1,1,1,2,0,1,"o1",0.524099917712848,0.00000000000000000000000000000000000107904274297885
16592,59,-0.32432,-0.32432,-0.41699,-0.09266,1709,4,2,90,0,2,0,9999,9999,0,-0.32432,2,1,1,2,0,0,1,1,1,2,0,1,"o1",0.524099917712848,0.00000000000000000000000000000000000107904274297885
16592,76,-0.32432,-0.32432,-0.41699,-0.09266,2359,3,2,0,180,2,0,9999,9999,0,-0.32432,2,1,1,2,0,0,1,1,1,2,0,1,"o1",0.524099917712848,0.00000000000000000000000000000000000107904274297885
16592,126,-0.27799,-0.27799,0.09266,0.37065,1574,3,1,270,90,2,0,9999,9999,0,-0.27799,2,1,1,2,0,0,1,1,1,2,0,1,"o1",0.524099917712848,0.00000000000000000000000000000000000107904274297885
16592,38,-0.27799,-0.27799,0.04633,0.32432,42080,1,1,90,90,1,0,9999,9999,0,-0.27799,2,0,1,2,0,0,1,1,1,2,0,1,"o1",0.524099917712848,0.00000000000000000000000000000000000107904274297885
16592,2,-0.27799,-0.27799,0.04633,0.32432,1271,2,1,0,0,2,0,9999,9999,0,-0.27799,2,0,1,2,0,0,1,1,1,2,0,1,"o1",0.524099917712848,0.00000000000000000000000000000000000107904274297885
16592,5,-0.27799,-0.27799,0,0.27799,2277,2,1,270,270,2,0,9999,9999,0,-0.27799,2,0,1,2,0,0,1,1,1,2,0,1,"o1",0.524099917712848,0.00000000000000000000000000000000000107904274297885
16592,123,-0.27799,-0.27799,0,0.27799,1942,3,2,0,180,2,1,180,0,0,-0.27799,0,1,0,0,0,1,0,1,1,3,1,0,"o1",0.524099917712848,0.00000000000000000000000000000000000107904274297885
16592,103,-0.27799,-0.27799,-0.09266,0.18533,2447,3,1,90,0,1,1,90,0,0,-0.27799,1,1,0,0,0,1,0,1,1,3,1,0,"o1",0.524099917712848,0.00000000000000000000000000000000000107904274297885
16592,89,-0.27799,-0.27799,-0.37066,-0.09266,1603,4,1,90,180,2,0,9999,9999,0,-0.27799,2,1,1,2,0,0,1,1,1,2,0,1,"o1",0.524099917712848,0.00000000000000000000000000000000000107904274297885
16592,92,-0.27799,-0.27799,-0.37066,-0.09266,1741,1,1,270,270,2,1,270,270,0,-0.27799,1,0,1,1,1,0,0,1,1,1,1,1,"o1",0.524099917712848,0.00000000000000000000000000000000000107904274297885
16592,141,-0.23166,-0.23166,0.41699,0.64865,1587,1,1,0,270,2,0,9999,9999,0,-0.23166,2,0,1,2,0,0,1,1,1,2,0,1,"o1",0.524099917712848,0.00000000000000000000000000000000000107904274297885
16592,10,-0.23166,-0.23166,0.13899,0.37065,1906,1,1,0,180,0,1,0,180,0,-0.23166,0,0,0,0,0,1,0,1,1,3,1,0,"o1",0.524099917712848,0.00000000000000000000000000000000000107904274297885
16592,56,-0.23166,-0.23166,0.04633,0.27799,2121,2,2,180,0,0,1,0,180,0,-0.23166,0,0,0,0,0,1,0,1,1,3,1,0,"o1",0.524099917712848,0.00000000000000000000000000000000000107904274297885
16592,101,-0.23166,-0.23166,0,0.23166,2255,3,1,0,90,1,0,9999,9999,0,-0.23166,2,1,1,2,0,0,1,1,1,2,0,1,"o1",0.524099917712848,0.00000000000000000000000000000000000107904274297885
16592,49,-0.23166,-0.23166,0,0.23166,1770,3,1,180,90,2,0,9999,9999,0,-0.23166,2,1,1,2,0,0,1,1,1,2,0,1,"o1",0.524099917712848,0.00000000000000000000000000000000000107904274297885
16592,16,-0.23166,-0.23166,-0.32432,-0.09266,1689,3,2,90,270,1,1,270,90,0,-0.23166,1,1,0,0,0,1,0,1,1,3,1,0,"o1",0.524099917712848,0.00000000000000000000000000000000000107904274297885
16592,143,-0.23166,-0.23166,-0.32432,-0.09266,1390,1,2,0,0,1,0,9999,9999,0,-0.23166,2,0,1,2,0,0,1,1,1,2,0,1,"o1",0.524099917712848,0.00000000000000000000000000000000000107904274297885
16592,143,-0.23166,-0.23166,-0.32432,-0.09266,1390,1,2,0,0,1,0,9999,9999,0,-0.23166,2,0,1,2,0,0,1,1,1,2,0,1,"o1",0.524099917712848,0.00000000000000000000000000000000000107904274297885
16592,88,-0.23166,-0.23166,-0.46332,-0.23166,2136,3,2,90,90,2,1,90,90,0,-0.23166,1,1,1,1,1,0,0,1,1,1,1,1,"o1",0.524099917712848,0.00000000000000000000000000000000000107904274297885
16592,31,-0.18533,-0.18533,0.09266,0.27799,4091,3,2,0,90,0,1,90,0,0,-0.18533,1,1,0,0,0,1,0,1,1,3,1,0,"o1",0.524099917712848,0.00000000000000000000000000000000000107904274297885
16592,51,-0.18533,-0.18533,-0.27799,-0.09266,4124,4,1,0,0,0,1,0,0,0,-0.18533,0,1,1,1,1,0,0,1,1,0,1,1,"o1",0.524099917712848,0.00000000000000000000000000000000000107904274297885
16592,27,-0.18533,-0.18533,-0.37066,-0.18533,1691,2,2,180,270,2,1,270,180,0,-0.18533,1,0,0,0,0,1,0,1,1,3,1,0,"o1",0.524099917712848,0.00000000000000000000000000000000000107904274297885
16592,52,-0.18533,-0.18533,-0.41699,-0.23166,2265,1,1,270,270,1,1,270,270,0,-0.18533,1,0,1,1,1,0,0,1,1,1,1,1,"o1",0.524099917712848,0.00000000000000000000000000000000000107904274297885
16592,75,-0.18533,-0.18533,-0.41699,-0.23166,1880,4,1,270,270,2,1,270,270,0,-0.18533,1,1,1,1,1,0,0,1,1,1,1,1,"o1",0.524099917712848,0.00000000000000000000000000000000000107904274297885
16592,80,-0.18533,-0.18533,-0.46332,-0.27799,1473,1,2,90,90,1,0,9999,9999,0,-0.18533,2,0,1,2,0,0,1,1,1,2,0,1,"o1",0.524099917712848,0.00000000000000000000000000000000000107904274297885
16592,96,-0.139,-0.139,0.37065,0.50965,2189,4,2,180,90,0,1,90,180,0,-0.139,1,1,0,0,0,1,0,1,1,3,1,0,"o1",0.524099917712848,0.00000000000000000000000000000000000107904274297885
16592,11,-0.139,-0.139,0.18533,0.32432,1631,2,1,90,90,0,0,9999,9999,0,-0.139,2,0,1,2,0,0,1,1,1,2,0,1,"o1",0.524099917712848,0.00000000000000000000000000000000000107904274297885
16592,144,-0.139,-0.139,0.13899,0.27799,1951,3,1,270,270,0,1,270,270,0,-0.139,1,1,1,1,1,0,0,1,1,1,1,1,"o1",0.524099917712848,0.00000000000000000000000000000000000107904274297885
16592,144,-0.139,-0.139,0.13899,0.27799,1951,3,1,270,270,0,1,270,270,0,-0.139,1,1,1,1,1,0,0,1,1,1,1,1,"o1",0.524099917712848,0.00000000000000000000000000000000000107904274297885
16592,70,-0.139,-0.139,0.09266,0.23166,1548,2,1,0,180,2,0,9999,9999,0,-0.139,2,0,1,2,0,0,1,1,1,2,0,1,"o1",0.524099917712848,0.00000000000000000000000000000000000107904274297885
16592,104,-0.139,-0.139,0.04633,0.18533,21495,1,1,90,0,1,1,90,0,0,-0.139,1,0,0,0,0,1,0,1,1,3,1,0,"o1",0.524099917712848,0.00000000000000000000000000000000000107904274297885
16592,140,-0.139,-0.139,-0.04633,0.09266,2684,3,2,90,90,0,1,90,90,0,-0.139,1,1,1,1,1,0,0,1,1,1,1,1,"o1",0.524099917712848,0.00000000000000000000000000000000000107904274297885
16592,140,-0.139,-0.139,-0.04633,0.09266,2684,3,2,90,90,0,1,90,90,0,-0.139,1,1,1,1,1,0,0,1,1,1,1,1,"o1",0.524099917712848,0.00000000000000000000000000000000000107904274297885
16592,95,-0.139,-0.139,-0.04633,0.09266,15112,3,1,90,90,1,0,9999,9999,0,-0.139,2,1,1,2,0,0,1,1,1,2,0,1,"o1",0.524099917712848,0.00000000000000000000000000000000000107904274297885
16592,90,-0.139,-0.139,-0.32432,-0.18533,1460,2,1,270,90,2,1,270,90,0,-0.139,1,0,0,0,0,1,0,1,1,3,1,0,"o1",0.524099917712848,0.00000000000000000000000000000000000107904274297885
16592,76,-0.09266,-0.09266,0.41699,0.50965,4530,4,2,270,90,0,1,90,270,0,-0.09266,1,1,0,0,0,1,0,1,1,3,1,0,"o1",0.524099917712848,0.00000000000000000000000000000000000107904274297885
16592,91,-0.09266,-0.09266,0.23166,0.32432,1669,4,2,270,180,1,1,180,270,0,-0.09266,0,1,0,0,0,1,0,1,1,3,1,0,"o1",0.524099917712848,0.00000000000000000000000000000000000107904274297885
16592,20,-0.09266,-0.09266,0.04633,0.139,1407,4,1,90,270,0,0,9999,9999,0,-0.09266,2,1,1,2,0,0,1,1,1,2,0,1,"o1",0.524099917712848,0.00000000000000000000000000000000000107904274297885
16592,65,-0.09266,-0.09266,0,0.09266,2504,3,2,180,90,1,0,9999,9999,0,-0.09266,2,1,1,2,0,0,1,1,1,2,0,1,"o1",0.524099917712848,0.00000000000000000000000000000000000107904274297885
16592,121,-0.09266,-0.09266,-0.09266,0,4737,1,1,270,180,2,1,270,180,0,-0.09266,1,0,0,0,0,1,0,1,1,3,1,0,"o1",0.524099917712848,0.00000000000000000000000000000000000107904274297885
16592,63,-0.09266,-0.09266,-0.139,-0.04633,2736,2,2,90,180,2,0,9999,9999,0,-0.09266,2,0,1,2,0,0,1,1,1,2,0,1,"o1",0.524099917712848,0.00000000000000000000000000000000000107904274297885
16592,30,-0.09266,-0.09266,-0.27799,-0.18533,2092,1,2,90,180,0,1,180,90,0,-0.09266,0,0,0,0,0,1,0,1,1,3,1,0,"o1",0.524099917712848,0.00000000000000000000000000000000000107904274297885
16592,118,-0.09266,-0.09266,-0.32432,-0.23166,1897,4,2,0,270,0,1,270,0,0,-0.09266,1,1,0,0,0,1,0,1,1,3,1,0,"o1",0.524099917712848,0.00000000000000000000000000000000000107904274297885
16592,118,-0.09266,-0.09266,-0.32432,-0.23166,1897,4,2,0,270,0,1,270,0,0,-0.09266,1,1,0,0,0,1,0,1,1,3,1,0,"o1",0.524099917712848,0.00000000000000000000000000000000000107904274297885
16592,93,-0.04633,-0.04633,0.41699,0.46332,2390,3,1,180,270,0,1,180,270,0,-0.04633,0,1,0,0,0,1,0,1,1,3,1,0,"o1",0.524099917712848,0.00000000000000000000000000000000000107904274297885
16592,1,-0.04633,-0.04633,0.41699,0.46332,1420,2,1,180,270,1,1,180,270,0,-0.04633,0,0,0,0,0,1,0,1,1,3,1,0,"o1",0.524099917712848,0.00000000000000000000000000000000000107904274297885
16592,61,-0.04633,-0.04633,0.41699,0.46332,18406,3,2,0,270,1,1,270,0,0,-0.04633,1,1,0,0,0,1,0,1,1,3,1,0,"o1",0.524099917712848,0.00000000000000000000000000000000000107904274297885
16592,108,-0.04633,-0.04633,0.41699,0.46332,1811,1,1,180,270,2,1,180,270,0,-0.04633,0,0,0,0,0,1,0,1,1,3,1,0,"o1",0.524099917712848,0.00000000000000000000000000000000000107904274297885
16592,27,-0.04633,-0.04633,0.27799,0.32432,3706,3,1,0,90,1,1,0,90,0,-0.04633,0,1,0,0,0,1,0,1,1,3,1,0,"o1",0.524099917712848,0.00000000000000000000000000000000000107904274297885
16592,101,-0.04633,-0.04633,0.09266,0.139,2420,4,1,270,0,2,1,270,0,0,-0.04633,1,1,0,0,0,1,0,1,1,3,1,0,"o1",0.524099917712848,0.00000000000000000000000000000000000107904274297885
16592,141,-0.04633,-0.04633,0.04633,0.09266,1663,3,1,90,180,0,0,9999,9999,0,-0.04633,2,1,1,2,0,0,1,1,1,2,0,1,"o1",0.524099917712848,0.00000000000000000000000000000000000107904274297885
16592,141,-0.04633,-0.04633,0.04633,0.09266,1663,3,1,90,180,0,0,9999,9999,0,-0.04633,2,1,1,2,0,0,1,1,1,2,0,1,"o1",0.524099917712848,0.00000000000000000000000000000000000107904274297885
16592,25,-0.04633,-0.04633,0,0.04633,1784,3,1,0,0,2,1,0,0,0,-0.04633,0,1,1,1,1,0,0,1,1,0,1,1,"o1",0.524099917712848,0.00000000000000000000000000000000000107904274297885
16592,48,-0.04633,-0.04633,-0.09266,-0.04633,1581,2,2,270,270,2,1,270,270,0,-0.04633,1,0,1,1,1,0,0,1,1,1,1,1,"o1",0.524099917712848,0.00000000000000000000000000000000000107904274297885
16592,138,-0.04633,-0.04633,-0.37066,-0.32432,5331,3,1,180,270,2,0,9999,9999,0,-0.04633,2,1,1,2,0,0,1,1,1,2,0,1,"o1",0.524099917712848,0.00000000000000000000000000000000000107904274297885
16592,61,0,0,0.27799,0.27799,2153,3,1,180,0,2,1,180,0,0,0,0,1,0,0,0,1,0,1,1,3,1,0,"o1",0.524099917712848,0.00000000000000000000000000000000000107904274297885
16592,145,0,0,0.18533,0.18533,1755,2,1,0,180,1,1,0,180,0,0,0,0,0,0,0,1,0,1,1,3,1,0,"o1",0.524099917712848,0.00000000000000000000000000000000000107904274297885
16592,145,0,0,0.18533,0.18533,1755,2,1,0,180,1,1,0,180,0,0,0,0,0,0,0,1,0,1,1,3,1,0,"o1",0.524099917712848,0.00000000000000000000000000000000000107904274297885
16592,106,0,0,0.18533,0.18533,1938,4,1,90,180,2,1,90,180,0,0,1,1,0,0,0,1,0,1,1,3,1,0,"o1",0.524099917712848,0.00000000000000000000000000000000000107904274297885
16592,23,0,0,0.13899,0.13899,1664,1,1,270,0,0,0,9999,9999,0,0,2,0,1,2,0,0,1,1,1,2,0,1,"o1",0.524099917712848,0.00000000000000000000000000000000000107904274297885
16592,110,0,0,0.13899,0.13899,1624,2,1,180,180,2,0,9999,9999,0,0,2,0,1,2,0,0,1,1,1,2,0,1,"o1",0.524099917712848,0.00000000000000000000000000000000000107904274297885
16592,65,0,0,0.04633,0.04633,1915,2,1,0,270,2,0,9999,9999,0,0,2,0,1,2,0,0,1,1,1,2,0,1,"o1",0.524099917712848,0.00000000000000000000000000000000000107904274297885
16592,32,0,0,0,0,2182,4,1,0,90,1,0,9999,9999,0,0,2,1,1,2,0,0,1,1,1,2,0,1,"o1",0.524099917712848,0.00000000000000000000000000000000000107904274297885
16592,110,0,0,0,0,1822,1,2,0,270,1,0,9999,9999,0,0,2,0,1,2,0,0,1,1,1,2,0,1,"o1",0.524099917712848,0.00000000000000000000000000000000000107904274297885
16592,50,0,0,-0.09266,-0.09266,3340,4,1,90,180,0,1,90,180,0,0,1,1,0,0,0,1,0,1,1,3,1,0,"o1",0.524099917712848,0.00000000000000000000000000000000000107904274297885
16592,45,0,0,-0.18533,-0.18533,6600,3,2,0,90,0,0,9999,9999,0,0,2,1,1,2,0,0,1,1,1,2,0,1,"o1",0.524099917712848,0.00000000000000000000000000000000000107904274297885
16592,14,0,0,-0.32432,-0.32432,1306,1,2,0,0,0,1,0,0,0,0,0,0,1,1,1,0,0,1,1,0,1,1,"o1",0.524099917712848,0.00000000000000000000000000000000000107904274297885
16592,63,0.04633,0.04633,0.37065,0.32432,1794,1,1,180,180,0,1,180,180,0,0.04633,0,0,1,1,1,0,0,1,1,0,1,1,"o1",0.524099917712848,0.00000000000000000000000000000000000107904274297885
16592,109,0.04633,0.04633,0.32432,0.27799,2665,1,1,0,90,1,1,0,90,0,0.04633,0,0,0,0,0,1,0,1,1,3,1,0,"o1",0.524099917712848,0.00000000000000000000000000000000000107904274297885
16592,146,0.04633,0.04633,0.32432,0.27799,1979,3,2,0,0,2,1,0,0,0,0.04633,0,1,1,1,1,0,0,1,1,0,1,1,"o1",0.524099917712848,0.00000000000000000000000000000000000107904274297885
16592,32,0.04633,0.04633,0.18533,0.139,1173,1,1,180,0,2,1,180,0,0,0.04633,0,0,0,0,0,1,0,1,1,3,1,0,"o1",0.524099917712848,0.00000000000000000000000000000000000107904274297885
16592,16,0.04633,0.04633,0.13899,0.09266,1758,3,1,0,0,0,0,9999,9999,0,0.04633,2,1,1,2,0,0,1,1,1,2,0,1,"o1",0.524099917712848,0.00000000000000000000000000000000000107904274297885
16592,33,0.04633,0.04633,0.09266,0.04633,2754,1,2,0,90,1,0,9999,9999,0,0.04633,2,0,1,2,0,0,1,1,1,2,0,1,"o1",0.524099917712848,0.00000000000000000000000000000000000107904274297885
16592,19,0.04633,0.04633,0,-0.04633,1550,4,2,0,270,1,0,9999,9999,0,0.04633,2,1,1,2,0,0,1,1,1,2,0,1,"o1",0.524099917712848,0.00000000000000000000000000000000000107904274297885
16592,37,0.04633,0.04633,-0.09266,-0.139,1673,4,2,90,90,0,1,90,90,0,0.04633,1,1,1,1,1,0,0,1,1,1,1,1,"o1",0.524099917712848,0.00000000000000000000000000000000000107904274297885
16592,90,0.04633,0.04633,-0.139,-0.18533,1615,1,2,270,180,1,1,180,270,0,0.04633,0,0,0,0,0,1,0,1,1,3,1,0,"o1",0.524099917712848,0.00000000000000000000000000000000000107904274297885
16592,68,0.04633,0.04633,-0.37066,-0.41699,1729,1,2,0,180,2,0,9999,9999,0,0.04633,2,0,1,2,0,0,1,1,1,2,0,1,"o1",0.524099917712848,0.00000000000000000000000000000000000107904274297885
16592,51,0.04633,0.04633,-0.41699,-0.46332,2079,3,1,90,0,1,1,90,0,0,0.04633,1,1,0,0,0,1,0,1,1,3,1,0,"o1",0.524099917712848,0.00000000000000000000000000000000000107904274297885
16592,41,0.09266,0.09266,0.41699,0.32432,2523,3,1,90,90,2,0,9999,9999,0,0.09266,2,1,1,2,0,0,1,1,1,2,0,1,"o1",0.524099917712848,0.00000000000000000000000000000000000107904274297885
16592,94,0.09266,0.09266,0.37065,0.27799,1772,3,2,180,180,2,1,180,180,0,0.09266,0,1,1,1,1,0,0,1,1,0,1,1,"o1",0.524099917712848,0.00000000000000000000000000000000000107904274297885
16592,136,0.09266,0.09266,0.09266,0,2253,4,1,270,90,0,0,9999,9999,0,0.09266,2,1,1,2,0,0,1,1,1,2,0,1,"o1",0.524099917712848,0.00000000000000000000000000000000000107904274297885
16592,136,0.09266,0.09266,0.09266,0,2253,4,1,270,90,0,0,9999,9999,0,0.09266,2,1,1,2,0,0,1,1,1,2,0,1,"o1",0.524099917712848,0.00000000000000000000000000000000000107904274297885
16592,14,0.09266,0.09266,0.09266,0,18029,3,2,270,270,2,1,270,270,0,0.09266,1,1,1,1,1,0,0,1,1,1,1,1,"o1",0.524099917712848,0.00000000000000000000000000000000000107904274297885
16592,9,0.09266,0.09266,0,-0.09266,3549,4,2,270,180,0,0,9999,9999,0,0.09266,2,1,1,2,0,0,1,1,1,2,0,1,"o1",0.524099917712848,0.00000000000000000000000000000000000107904274297885
16592,132,0.09266,0.09266,0,-0.09266,1652,2,2,180,0,0,0,9999,9999,0,0.09266,2,0,1,2,0,0,1,1,1,2,0,1,"o1",0.524099917712848,0.00000000000000000000000000000000000107904274297885
16592,132,0.09266,0.09266,0,-0.09266,1652,2,2,180,0,0,0,9999,9999,0,0.09266,2,0,1,2,0,0,1,1,1,2,0,1,"o1",0.524099917712848,0.00000000000000000000000000000000000107904274297885
16592,100,0.09266,0.09266,-0.04633,-0.139,1265,4,2,90,90,2,0,9999,9999,0,0.09266,2,1,1,2,0,0,1,1,1,2,0,1,"o1",0.524099917712848,0.00000000000000000000000000000000000107904274297885
16592,89,0.09266,0.09266,-0.09266,-0.18533,2754,1,1,270,270,1,1,270,270,0,0.09266,1,0,1,1,1,0,0,1,1,1,1,1,"o1",0.524099917712848,0.00000000000000000000000000000000000107904274297885
16592,48,0.13899,0.13899,0.41699,0.27799,3527,3,2,0,0,1,0,9999,9999,0,0.13899,2,1,1,2,0,0,1,1,1,2,0,1,"o1",0.524099917712848,0.00000000000000000000000000000000000107904274297885
16592,98,0.13899,0.13899,0.13899,0,2772,2,1,270,0,0,0,9999,9999,0,0.13899,2,0,1,2,0,0,1,1,1,2,0,1,"o1",0.524099917712848,0.00000000000000000000000000000000000107904274297885
16592,39,0.13899,0.13899,0.13899,0,2630,2,2,270,180,1,0,9999,9999,0,0.13899,2,0,1,2,0,0,1,1,1,2,0,1,"o1",0.524099917712848,0.00000000000000000000000000000000000107904274297885
16592,81,0.13899,0.13899,0,-0.139,2118,1,2,0,90,2,1,90,0,0,0.13899,1,0,0,0,0,1,0,1,1,3,1,0,"o1",0.524099917712848,0.00000000000000000000000000000000000107904274297885
16592,0,0.13899,0.13899,-0.27799,-0.41699,1349,3,2,0,0,2,0,9999,9999,0,0.13899,2,1,1,2,0,0,1,1,1,2,0,1,"o1",0.524099917712848,0.00000000000000000000000000000000000107904274297885
16592,0,0.18533,0.18533,0.41699,0.23166,2946,1,2,270,180,0,0,9999,9999,0,0.18533,2,0,1,2,0,0,1,1,1,2,0,1,"o1",0.524099917712848,0.00000000000000000000000000000000000107904274297885
16592,73,0.18533,0.18533,0.37065,0.18533,2491,1,2,90,180,0,0,9999,9999,0,0.18533,2,0,1,2,0,0,1,1,1,2,0,1,"o1",0.524099917712848,0.00000000000000000000000000000000000107904274297885
16592,46,0.18533,0.18533,0.32432,0.139,1540,3,1,180,270,2,0,9999,9999,0,0.18533,2,1,1,2,0,0,1,1,1,2,0,1,"o1",0.524099917712848,0.00000000000000000000000000000000000107904274297885
16592,146,0.18533,0.18533,0.23166,0.04633,2939,3,2,180,0,1,0,9999,9999,0,0.18533,2,1,1,2,0,0,1,1,1,2,0,1,"o1",0.524099917712848,0.00000000000000000000000000000000000107904274297885
16592,146,0.18533,0.18533,0.23166,0.04633,2939,3,2,180,0,1,0,9999,9999,0,0.18533,2,1,1,2,0,0,1,1,1,2,0,1,"o1",0.524099917712848,0.00000000000000000000000000000000000107904274297885
16592,83,0.18533,0.18533,0.23166,0.04633,2614,4,2,180,90,2,1,90,180,0,0.18533,1,1,0,0,0,1,0,1,1,3,1,0,"o1",0.524099917712848,0.00000000000000000000000000000000000107904274297885
16592,55,0.18533,0.18533,0.09266,-0.09266,6078,4,2,180,270,0,1,270,180,0,0.18533,1,1,0,0,0,1,0,1,1,3,1,0,"o1",0.524099917712848,0.00000000000000000000000000000000000107904274297885
16592,117,0.18533,0.18533,0.09266,-0.09266,30936,2,1,0,0,1,0,9999,9999,0,0.18533,2,0,1,2,0,0,1,1,1,2,0,1,"o1",0.524099917712848,0.00000000000000000000000000000000000107904274297885
16592,117,0.18533,0.18533,0.09266,-0.09266,30936,2,1,0,0,1,0,9999,9999,0,0.18533,2,0,1,2,0,0,1,1,1,2,0,1,"o1",0.524099917712848,0.00000000000000000000000000000000000107904274297885
16592,94,0.18533,0.18533,-0.04633,-0.23166,5206,3,1,90,0,1,1,90,0,0,0.18533,1,1,0,0,0,1,0,1,1,3,1,0,"o1",0.524099917712848,0.00000000000000000000000000000000000107904274297885
16592,57,0.18533,0.18533,-0.37066,-0.55598,2293,4,1,180,0,1,1,180,0,0,0.18533,0,1,0,0,0,1,0,1,1,3,1,0,"o1",0.524099917712848,0.00000000000000000000000000000000000107904274297885
16592,120,0.23166,0.23166,0.37065,0.139,1789,1,2,90,0,0,1,0,90,0,0.23166,0,0,0,0,0,1,0,1,1,3,1,0,"o1",0.524099917712848,0.00000000000000000000000000000000000107904274297885
16592,120,0.23166,0.23166,0.37065,0.139,1789,1,2,90,0,0,1,0,90,0,0.23166,0,0,0,0,0,1,0,1,1,3,1,0,"o1",0.524099917712848,0.00000000000000000000000000000000000107904274297885
16592,67,0.23166,0.23166,0.27799,0.04633,3132,3,1,90,0,0,1,90,0,0,0.23166,1,1,0,0,0,1,0,1,1,3,1,0,"o1",0.524099917712848,0.00000000000000000000000000000000000107904274297885
16592,9,0.23166,0.23166,0.27799,0.04633,2248,2,2,180,90,2,1,90,180,0,0.23166,1,0,0,0,0,1,0,1,1,3,1,0,"o1",0.524099917712848,0.00000000000000000000000000000000000107904274297885
16592,6,0.23166,0.23166,0.18533,-0.04633,2689,3,1,270,0,0,0,9999,9999,0,0.23166,2,1,1,2,0,0,1,1,1,2,0,1,"o1",0.524099917712848,0.00000000000000000000000000000000000107904274297885
16592,12,0.23166,0.23166,0.13899,-0.09266,2343,4,2,180,270,1,0,9999,9999,0,0.23166,2,1,1,2,0,0,1,1,1,2,0,1,"o1",0.524099917712848,0.00000000000000000000000000000000000107904274297885
16592,75,0.23166,0.23166,-0.04633,-0.27799,1582,1,2,0,270,1,1,270,0,0,0.23166,1,0,0,0,0,1,0,1,1,3,1,0,"o1",0.524099917712848,0.00000000000000000000000000000000000107904274297885
16592,112,0.27799,0.27799,0.46332,0.18533,1855,3,1,180,270,0,0,9999,9999,0,0.27799,2,1,1,2,0,0,1,1,1,2,0,1,"o1",0.524099917712848,0.00000000000000000000000000000000000107904274297885
16592,98,0.27799,0.27799,0.41699,0.139,2130,2,1,180,270,1,1,180,270,0,0.27799,0,0,0,0,0,1,0,1,1,3,1,0,"o1",0.524099917712848,0.00000000000000000000000000000000000107904274297885
16592,4,0.27799,0.27799,0.32432,0.04633,2739,2,1,0,270,0,0,9999,9999,0,0.27799,2,0,1,2,0,0,1,1,1,2,0,1,"o1",0.524099917712848,0.00000000000000000000000000000000000107904274297885
16592,45,0.27799,0.27799,0.32432,0.04633,1542,2,1,0,0,1,1,0,0,0,0.27799,0,0,1,1,1,0,0,1,1,0,1,1,"o1",0.524099917712848,0.00000000000000000000000000000000000107904274297885
16592,35,0.27799,0.27799,0.18533,-0.09266,1687,3,2,270,90,0,1,90,270,0,0.27799,1,1,0,0,0,1,0,1,1,3,1,0,"o1",0.524099917712848,0.00000000000000000000000000000000000107904274297885
16592,141,0.27799,0.27799,0.09266,-0.18533,2032,3,1,270,270,1,1,270,270,0,0.27799,1,1,1,1,1,0,0,1,1,1,1,1,"o1",0.524099917712848,0.00000000000000000000000000000000000107904274297885
16592,141,0.27799,0.27799,0.09266,-0.18533,2032,3,1,270,270,1,1,270,270,0,0.27799,1,1,1,1,1,0,0,1,1,1,1,1,"o1",0.524099917712848,0.00000000000000000000000000000000000107904274297885
16592,104,0.27799,0.27799,0.09266,-0.18533,2916,1,1,90,90,2,0,9999,9999,0,0.27799,2,0,1,2,0,0,1,1,1,2,0,1,"o1",0.524099917712848,0.00000000000000000000000000000000000107904274297885
16592,43,0.32432,0.32432,0.50965,0.18533,2375,4,2,0,270,0,0,9999,9999,0,0.32432,2,1,1,2,0,0,1,1,1,2,0,1,"o1",0.524099917712848,0.00000000000000000000000000000000000107904274297885
16592,62,0.32432,0.32432,0.41699,0.09266,1740,1,2,180,180,0,1,180,180,0,0.32432,0,0,1,1,1,0,0,1,1,0,1,1,"o1",0.524099917712848,0.00000000000000000000000000000000000107904274297885
16592,0,0.32432,0.32432,0.09266,-0.23166,1700,4,1,270,180,1,0,9999,9999,0,0.32432,2,1,1,2,0,0,1,1,1,2,0,1,"o1",0.524099917712848,0.00000000000000000000000000000000000107904274297885
16592,96,0.32432,0.32432,-0.04633,-0.37065,1647,4,2,180,270,2,0,9999,9999,0,0.32432,2,1,1,2,0,0,1,1,1,2,0,1,"o1",0.524099917712848,0.00000000000000000000000000000000000107904274297885
16592,39,0.32432,0.32432,-0.139,-0.46332,1581,2,2,270,180,2,0,9999,9999,0,0.32432,2,0,1,2,0,0,1,1,1,2,0,1,"o1",0.524099917712848,0.00000000000000000000000000000000000107904274297885
16592,47,0.32432,0.32432,-0.32432,-0.64865,3258,3,2,90,180,1,1,180,90,0,0.32432,0,1,0,0,0,1,0,1,1,3,1,0,"o1",0.524099917712848,0.00000000000000000000000000000000000107904274297885
16592,143,0.32432,0.32432,-0.41699,-0.74131,1646,1,2,90,0,2,1,0,90,0,0.32432,0,0,0,0,0,1,0,1,1,3,1,0,"o1",0.524099917712848,0.00000000000000000000000000000000000107904274297885
16592,17,0.37065,0.37065,0.50965,0.139,3513,1,2,90,180,2,1,180,90,0,0.37065,0,0,0,0,0,1,0,1,1,3,1,0,"o1",0.524099917712848,0.00000000000000000000000000000000000107904274297885
16592,54,0.37065,0.37065,0.27799,-0.09266,1616,2,1,270,180,2,1,270,180,0,0.37065,1,0,0,0,0,1,0,1,1,3,1,0,"o1",0.524099917712848,0.00000000000000000000000000000000000107904274297885
16592,63,0.37065,0.37065,0.04633,-0.32432,1991,2,2,0,0,1,0,9999,9999,0,0.37065,2,0,1,2,0,0,1,1,1,2,0,1,"o1",0.524099917712848,0.00000000000000000000000000000000000107904274297885
16592,122,0.41699,0.41699,0.41699,0,1823,1,2,0,90,0,0,9999,9999,0,0.41699,2,0,1,2,0,0,1,1,1,2,0,1,"o1",0.524099917712848,0.00000000000000000000000000000000000107904274297885
16592,122,0.41699,0.41699,0.41699,0,1823,1,2,0,90,0,0,9999,9999,0,0.41699,2,0,1,2,0,0,1,1,1,2,0,1,"o1",0.524099917712848,0.00000000000000000000000000000000000107904274297885
16592,36,0.41699,0.41699,0.23166,-0.18533,2441,3,2,0,90,0,1,90,0,0,0.41699,1,1,0,0,0,1,0,1,1,3,1,0,"o1",0.524099917712848,0.00000000000000000000000000000000000107904274297885
16592,9,0.41699,0.41699,0.23166,-0.18533,2298,1,2,0,180,1,1,180,0,0,0.41699,0,0,0,0,0,1,0,1,1,3,1,0,"o1",0.524099917712848,0.00000000000000000000000000000000000107904274297885
16592,96,0.41699,0.41699,0.18533,-0.23166,6086,2,2,180,180,1,0,9999,9999,0,0.41699,2,0,1,2,0,0,1,1,1,2,0,1,"o1",0.524099917712848,0.00000000000000000000000000000000000107904274297885
16592,50,0.41699,0.41699,0.18533,-0.23166,2523,4,2,270,90,2,1,90,270,0,0.41699,1,1,0,0,0,1,0,1,1,3,1,0,"o1",0.524099917712848,0.00000000000000000000000000000000000107904274297885
16592,24,0.41699,0.41699,0.13899,-0.27799,2504,1,2,0,270,1,1,270,0,0,0.41699,1,0,0,0,0,1,0,1,1,3,1,0,"o1",0.524099917712848,0.00000000000000000000000000000000000107904274297885
16592,41,0.41699,0.41699,0.13899,-0.27799,2570,2,2,0,90,1,1,90,0,0,0.41699,1,0,0,0,0,1,0,1,1,3,1,0,"o1",0.524099917712848,0.00000000000000000000000000000000000107904274297885
16592,130,0.41699,0.41699,0.09266,-0.32432,1741,3,1,270,0,1,0,9999,9999,0,0.41699,2,1,1,2,0,0,1,1,1,2,0,1,"o1",0.524099917712848,0.00000000000000000000000000000000000107904274297885
16592,130,0.41699,0.41699,0.09266,-0.32432,1741,3,1,270,0,1,0,9999,9999,0,0.41699,2,1,1,2,0,0,1,1,1,2,0,1,"o1",0.524099917712848,0.00000000000000000000000000000000000107904274297885
16592,85,0.41699,0.41699,-0.04633,-0.46332,2238,4,2,270,0,1,1,0,270,0,0.41699,0,1,0,0,0,1,0,1,1,3,1,0,"o1",0.524099917712848,0.00000000000000000000000000000000000107904274297885
16592,97,0.46332,0.46332,0.60231,0.139,4671,3,1,180,0,2,1,180,0,0,0.46332,0,1,0,0,0,1,0,1,1,3,1,0,"o1",0.524099917712848,0.00000000000000000000000000000000000107904274297885
16592,105,0.46332,0.46332,0.55598,0.09266,3041,4,2,180,180,2,0,9999,9999,0,0.46332,2,1,1,2,0,0,1,1,1,2,0,1,"o1",0.524099917712848,0.00000000000000000000000000000000000107904274297885
16592,84,0.46332,0.46332,0.50965,0.04633,2699,3,1,180,180,2,0,9999,9999,0,0.46332,2,1,1,2,0,0,1,1,1,2,0,1,"o1",0.524099917712848,0.00000000000000000000000000000000000107904274297885
16592,142,0.46332,0.46332,0.46332,0,3144,4,1,0,180,0,1,0,180,0,0.46332,0,1,0,0,0,1,0,1,1,3,1,0,"o1",0.524099917712848,0.00000000000000000000000000000000000107904274297885
16592,142,0.46332,0.46332,0.46332,0,3144,4,1,0,180,0,1,0,180,0,0.46332,0,1,0,0,0,1,0,1,1,3,1,0,"o1",0.524099917712848,0.00000000000000000000000000000000000107904274297885
16592,65,0.46332,0.46332,0.41699,-0.04633,1823,1,1,90,270,0,0,9999,9999,0,0.46332,2,0,1,2,0,0,1,1,1,2,0,1,"o1",0.524099917712848,0.00000000000000000000000000000000000107904274297885
16592,62,0.46332,0.46332,0.41699,-0.04633,1384,3,1,90,0,1,1,90,0,0,0.46332,1,1,0,0,0,1,0,1,1,3,1,0,"o1",0.524099917712848,0.00000000000000000000000000000000000107904274297885
16592,81,0.46332,0.46332,0.37065,-0.09266,2021,3,1,270,90,1,1,270,90,0,0.46332,1,1,0,0,0,1,0,1,1,3,1,0,"o1",0.524099917712848,0.00000000000000000000000000000000000107904274297885
16592,13,0.46332,0.46332,0,-0.46332,1954,4,1,90,180,0,1,90,180,0,0.46332,1,1,0,0,0,1,0,1,1,3,1,0,"o1",0.524099917712848,0.00000000000000000000000000000000000107904274297885
18329,11,-0.46332,-0.46332,-0.18533,0.27799,1293,2,2,270,180,0,1,180,270,0,-0.46332,0,0,0,0,0,1,0,1,1,3,1,0,"o10",0.415007555200034,0.000000000000000000000281089422938847
18329,114,-0.46332,-0.46332,-0.32432,0.139,2136,2,1,270,90,1,1,270,90,0,-0.46332,1,0,0,0,0,1,0,1,1,3,1,0,"o10",0.415007555200034,0.000000000000000000000281089422938847
18329,145,-0.46332,-0.46332,-0.32432,0.139,1284,1,2,0,0,1,1,0,0,0,-0.46332,0,0,1,1,1,0,0,1,1,0,1,1,"o10",0.415007555200034,0.000000000000000000000281089422938847
18329,145,-0.46332,-0.46332,-0.32432,0.139,1284,1,2,0,0,1,1,0,0,0,-0.46332,0,0,1,1,1,0,0,1,1,0,1,1,"o10",0.415007555200034,0.000000000000000000000281089422938847
18329,123,-0.46332,-0.46332,-0.46332,0,4289,4,2,90,90,1,1,90,90,0,-0.46332,1,1,1,1,1,0,0,1,1,1,1,1,"o10",0.415007555200034,0.000000000000000000000281089422938847
18329,123,-0.46332,-0.46332,-0.46332,0,4289,4,2,90,90,1,1,90,90,0,-0.46332,1,1,1,1,1,0,0,1,1,1,1,1,"o10",0.415007555200034,0.000000000000000000000281089422938847
18329,128,-0.46332,-0.46332,-0.60231,-0.139,2577,4,2,90,90,1,1,90,90,0,-0.46332,1,1,1,1,1,0,0,1,1,1,1,1,"o10",0.415007555200034,0.000000000000000000000281089422938847
18329,128,-0.46332,-0.46332,-0.60231,-0.139,2577,4,2,90,90,1,1,90,90,0,-0.46332,1,1,1,1,1,0,0,1,1,1,1,1,"o10",0.415007555200034,0.000000000000000000000281089422938847
18329,88,-0.41699,-0.41699,-0.09266,0.32432,1324,4,1,0,270,2,1,0,270,0,-0.41699,0,1,0,0,0,1,0,1,1,3,1,0,"o10",0.415007555200034,0.000000000000000000000281089422938847
18329,111,-0.41699,-0.41699,-0.23166,0.18533,1359,3,1,270,180,2,1,270,180,0,-0.41699,1,1,0,0,0,1,0,1,1,3,1,0,"o10",0.415007555200034,0.000000000000000000000281089422938847
18329,39,-0.41699,-0.41699,-0.27799,0.139,1653,2,2,270,180,2,0,9999,9999,0,-0.41699,2,0,1,2,0,0,1,1,1,2,0,1,"o10",0.415007555200034,0.000000000000000000000281089422938847
18329,16,-0.41699,-0.41699,-0.32432,0.09266,1986,2,2,180,270,1,0,9999,9999,0,-0.41699,2,0,1,2,0,0,1,1,1,2,0,1,"o10",0.415007555200034,0.000000000000000000000281089422938847
18329,61,-0.41699,-0.41699,-0.37066,0.04633,3099,2,2,180,90,0,1,90,180,0,-0.41699,1,0,0,0,0,1,0,1,1,3,1,0,"o10",0.415007555200034,0.000000000000000000000281089422938847
18329,20,-0.41699,-0.41699,-0.41699,0,2803,4,2,270,270,1,1,270,270,0,-0.41699,1,1,1,1,1,0,0,1,1,1,1,1,"o10",0.415007555200034,0.000000000000000000000281089422938847
18329,128,-0.37066,-0.37066,0.23166,0.60231,1285,4,1,270,180,0,1,270,180,0,-0.37066,1,1,0,0,0,1,0,1,1,3,1,0,"o10",0.415007555200034,0.000000000000000000000281089422938847
18329,128,-0.37066,-0.37066,0.23166,0.60231,1285,4,1,270,180,0,1,270,180,0,-0.37066,1,1,0,0,0,1,0,1,1,3,1,0,"o10",0.415007555200034,0.000000000000000000000281089422938847
18329,114,-0.37066,-0.37066,0.13899,0.50965,1308,4,2,270,270,0,0,9999,9999,0,-0.37066,2,1,1,2,0,0,1,1,1,2,0,1,"o10",0.415007555200034,0.000000000000000000000281089422938847
18329,67,-0.37066,-0.37066,0.13899,0.50965,1137,4,2,0,180,1,1,180,0,0,-0.37066,0,1,0,0,0,1,0,1,1,3,1,0,"o10",0.415007555200034,0.000000000000000000000281089422938847
18329,8,-0.37066,-0.37066,0.09266,0.46332,4386,1,2,180,90,1,0,9999,9999,0,-0.37066,2,0,1,2,0,0,1,1,1,2,0,1,"o10",0.415007555200034,0.000000000000000000000281089422938847
18329,126,-0.37066,-0.37066,0,0.37065,2284,2,1,180,90,2,1,180,90,0,-0.37066,0,0,0,0,0,1,0,1,1,3,1,0,"o10",0.415007555200034,0.000000000000000000000281089422938847
18329,141,-0.37066,-0.37066,-0.139,0.23166,1200,4,1,0,90,2,0,9999,9999,0,-0.37066,2,1,1,2,0,0,1,1,1,2,0,1,"o10",0.415007555200034,0.000000000000000000000281089422938847
18329,91,-0.37066,-0.37066,-0.18533,0.18533,1867,4,2,270,0,2,1,0,270,0,-0.37066,0,1,0,0,0,1,0,1,1,3,1,0,"o10",0.415007555200034,0.000000000000000000000281089422938847
18329,92,-0.37066,-0.37066,-0.23166,0.139,1293,4,2,180,270,0,1,270,180,0,-0.37066,1,1,0,0,0,1,0,1,1,3,1,0,"o10",0.415007555200034,0.000000000000000000000281089422938847
18329,140,-0.37066,-0.37066,-0.27799,0.09266,2043,3,1,180,90,2,1,180,90,0,-0.37066,0,1,0,0,0,1,0,1,1,3,1,0,"o10",0.415007555200034,0.000000000000000000000281089422938847
18329,27,-0.37066,-0.37066,-0.37066,0,2136,4,2,0,270,0,0,9999,9999,0,-0.37066,2,1,1,2,0,0,1,1,1,2,0,1,"o10",0.415007555200034,0.000000000000000000000281089422938847
18329,127,-0.37066,-0.37066,-0.46332,-0.09266,3147,2,1,270,180,2,1,270,180,0,-0.37066,1,0,0,0,0,1,0,1,1,3,1,0,"o10",0.415007555200034,0.000000000000000000000281089422938847
18329,72,-0.32432,-0.32432,0.13899,0.46332,2569,4,1,180,180,2,1,180,180,0,-0.32432,0,1,1,1,1,0,0,1,1,0,1,1,"o10",0.415007555200034,0.000000000000000000000281089422938847
18329,88,-0.32432,-0.32432,-0.18533,0.139,1323,4,2,270,180,0,0,9999,9999,0,-0.32432,2,1,1,2,0,0,1,1,1,2,0,1,"o10",0.415007555200034,0.000000000000000000000281089422938847
18329,138,-0.32432,-0.32432,-0.18533,0.139,2550,4,1,0,0,0,1,0,0,0,-0.32432,0,1,1,1,1,0,0,1,1,0,1,1,"o10",0.415007555200034,0.000000000000000000000281089422938847
18329,138,-0.32432,-0.32432,-0.18533,0.139,2550,4,1,0,0,0,1,0,0,0,-0.32432,0,1,1,1,1,0,0,1,1,0,1,1,"o10",0.415007555200034,0.000000000000000000000281089422938847
18329,137,-0.32432,-0.32432,-0.18533,0.139,1638,4,1,270,0,1,0,9999,9999,0,-0.32432,2,1,1,2,0,0,1,1,1,2,0,1,"o10",0.415007555200034,0.000000000000000000000281089422938847
18329,137,-0.32432,-0.32432,-0.18533,0.139,1638,4,1,270,0,1,0,9999,9999,0,-0.32432,2,1,1,2,0,0,1,1,1,2,0,1,"o10",0.415007555200034,0.000000000000000000000281089422938847
18329,124,-0.32432,-0.32432,-0.41699,-0.09266,1388,2,1,90,270,2,1,90,270,0,-0.32432,1,0,0,0,0,1,0,1,1,3,1,0,"o10",0.415007555200034,0.000000000000000000000281089422938847
18329,99,-0.27799,-0.27799,0.04633,0.32432,1740,4,2,270,180,2,1,180,270,0,-0.27799,0,1,0,0,0,1,0,1,1,3,1,0,"o10",0.415007555200034,0.000000000000000000000281089422938847
18329,96,-0.27799,-0.27799,-0.04633,0.23166,1119,4,2,0,180,2,1,180,0,0,-0.27799,0,1,0,0,0,1,0,1,1,3,1,0,"o10",0.415007555200034,0.000000000000000000000281089422938847
18329,101,-0.27799,-0.27799,-0.139,0.139,1687,4,1,90,90,0,0,9999,9999,0,-0.27799,2,1,1,2,0,0,1,1,1,2,0,1,"o10",0.415007555200034,0.000000000000000000000281089422938847
18329,85,-0.27799,-0.27799,-0.23166,0.04633,3240,4,2,90,0,0,1,0,90,0,-0.27799,0,1,0,0,0,1,0,1,1,3,1,0,"o10",0.415007555200034,0.000000000000000000000281089422938847
18329,29,-0.27799,-0.27799,-0.27799,0,1617,1,2,90,270,0,1,270,90,0,-0.27799,1,0,0,0,0,1,0,1,1,3,1,0,"o10",0.415007555200034,0.000000000000000000000281089422938847
18329,62,-0.27799,-0.27799,-0.41699,-0.139,1043,2,1,0,270,1,1,0,270,0,-0.27799,0,0,0,0,0,1,0,1,1,3,1,0,"o10",0.415007555200034,0.000000000000000000000281089422938847
18329,123,-0.23166,-0.23166,0.23166,0.46332,1516,2,2,90,270,0,0,9999,9999,0,-0.23166,2,0,1,2,0,0,1,1,1,2,0,1,"o10",0.415007555200034,0.000000000000000000000281089422938847
18329,123,-0.23166,-0.23166,0.23166,0.46332,1516,2,2,90,270,0,0,9999,9999,0,-0.23166,2,0,1,2,0,0,1,1,1,2,0,1,"o10",0.415007555200034,0.000000000000000000000281089422938847
18329,98,-0.23166,-0.23166,0.18533,0.41699,1162,2,1,180,180,1,0,9999,9999,0,-0.23166,2,0,1,2,0,0,1,1,1,2,0,1,"o10",0.415007555200034,0.000000000000000000000281089422938847
18329,54,-0.23166,-0.23166,0,0.23166,1935,4,1,0,270,0,1,0,270,0,-0.23166,0,1,0,0,0,1,0,1,1,3,1,0,"o10",0.415007555200034,0.000000000000000000000281089422938847
18329,142,-0.23166,-0.23166,-0.04633,0.18533,1596,4,1,0,0,0,0,9999,9999,0,-0.23166,2,1,1,2,0,0,1,1,1,2,0,1,"o10",0.415007555200034,0.000000000000000000000281089422938847
18329,142,-0.23166,-0.23166,-0.04633,0.18533,1596,4,1,0,0,0,0,9999,9999,0,-0.23166,2,1,1,2,0,0,1,1,1,2,0,1,"o10",0.415007555200034,0.000000000000000000000281089422938847
18329,49,-0.23166,-0.23166,-0.04633,0.18533,1371,2,2,90,0,1,1,0,90,0,-0.23166,0,0,0,0,0,1,0,1,1,3,1,0,"o10",0.415007555200034,0.000000000000000000000281089422938847
18329,101,-0.23166,-0.23166,-0.23166,0,2588,3,1,270,90,2,0,9999,9999,0,-0.23166,2,1,1,2,0,0,1,1,1,2,0,1,"o10",0.415007555200034,0.000000000000000000000281089422938847
18329,102,-0.18533,-0.18533,0.13899,0.32432,1427,2,1,270,0,0,0,9999,9999,0,-0.18533,2,0,1,2,0,0,1,1,1,2,0,1,"o10",0.415007555200034,0.000000000000000000000281089422938847
18329,80,-0.18533,-0.18533,0.09266,0.27799,1152,1,1,0,0,1,1,0,0,0,-0.18533,0,0,1,1,1,0,0,1,1,0,1,1,"o10",0.415007555200034,0.000000000000000000000281089422938847
18329,80,-0.18533,-0.18533,0.04633,0.23166,1053,4,2,270,0,2,0,9999,9999,0,-0.18533,2,1,1,2,0,0,1,1,1,2,0,1,"o10",0.415007555200034,0.000000000000000000000281089422938847
18329,141,-0.18533,-0.18533,-0.09266,0.09266,1035,3,2,270,270,1,0,9999,9999,0,-0.18533,2,1,1,2,0,0,1,1,1,2,0,1,"o10",0.415007555200034,0.000000000000000000000281089422938847
18329,141,-0.18533,-0.18533,-0.09266,0.09266,1035,3,2,270,270,1,0,9999,9999,0,-0.18533,2,1,1,2,0,0,1,1,1,2,0,1,"o10",0.415007555200034,0.000000000000000000000281089422938847
18329,125,-0.18533,-0.18533,-0.27799,-0.09266,1588,2,2,270,0,0,1,0,270,0,-0.18533,0,0,0,0,0,1,0,1,1,3,1,0,"o10",0.415007555200034,0.000000000000000000000281089422938847
18329,125,-0.18533,-0.18533,-0.27799,-0.09266,1588,2,2,270,0,0,1,0,270,0,-0.18533,0,0,0,0,0,1,0,1,1,3,1,0,"o10",0.415007555200034,0.000000000000000000000281089422938847
18329,25,-0.18533,-0.18533,-0.32432,-0.139,1440,4,2,90,90,1,1,90,90,0,-0.18533,1,1,1,1,1,0,0,1,1,1,1,1,"o10",0.415007555200034,0.000000000000000000000281089422938847
18329,111,-0.18533,-0.18533,-0.41699,-0.23166,2853,2,1,90,180,0,1,90,180,0,-0.18533,1,0,0,0,0,1,0,1,1,3,1,0,"o10",0.415007555200034,0.000000000000000000000281089422938847
18329,108,-0.18533,-0.18533,-0.41699,-0.23166,2553,4,2,90,270,1,1,270,90,0,-0.18533,1,1,0,0,0,1,0,1,1,3,1,0,"o10",0.415007555200034,0.000000000000000000000281089422938847
18329,78,-0.139,-0.139,0.27799,0.41699,2607,4,1,0,270,2,1,0,270,0,-0.139,0,1,0,0,0,1,0,1,1,3,1,0,"o10",0.415007555200034,0.000000000000000000000281089422938847
18329,138,-0.139,-0.139,0.27799,0.41699,2773,2,2,270,0,2,1,0,270,0,-0.139,0,0,0,0,0,1,0,1,1,3,1,0,"o10",0.415007555200034,0.000000000000000000000281089422938847
18329,93,-0.139,-0.139,0.18533,0.32432,3253,4,2,0,270,0,1,270,0,0,-0.139,1,1,0,0,0,1,0,1,1,3,1,0,"o10",0.415007555200034,0.000000000000000000000281089422938847
18329,18,-0.139,-0.139,0.13899,0.27799,7288,1,1,0,90,2,1,0,90,0,-0.139,0,0,0,0,0,1,0,1,1,3,1,0,"o10",0.415007555200034,0.000000000000000000000281089422938847
18329,16,-0.139,-0.139,-0.09266,0.04633,5501,4,2,0,180,2,0,9999,9999,0,-0.139,2,1,1,2,0,0,1,1,1,2,0,1,"o10",0.415007555200034,0.000000000000000000000281089422938847
18329,68,-0.139,-0.139,-0.139,0,1528,4,1,90,0,0,1,90,0,0,-0.139,1,1,0,0,0,1,0,1,1,3,1,0,"o10",0.415007555200034,0.000000000000000000000281089422938847
18329,63,-0.09266,-0.09266,0.46332,0.55598,1752,1,1,180,0,2,1,180,0,0,-0.09266,0,0,0,0,0,1,0,1,1,3,1,0,"o10",0.415007555200034,0.000000000000000000000281089422938847
18329,125,-0.09266,-0.09266,0.37065,0.46332,2237,2,1,270,90,1,1,270,90,0,-0.09266,1,0,0,0,0,1,0,1,1,3,1,0,"o10",0.415007555200034,0.000000000000000000000281089422938847
18329,125,-0.09266,-0.09266,0.37065,0.46332,2237,2,1,270,90,1,1,270,90,0,-0.09266,1,0,0,0,0,1,0,1,1,3,1,0,"o10",0.415007555200034,0.000000000000000000000281089422938847
18329,4,-0.09266,-0.09266,0.13899,0.23166,1912,4,1,0,270,0,0,9999,9999,0,-0.09266,2,1,1,2,0,0,1,1,1,2,0,1,"o10",0.415007555200034,0.000000000000000000000281089422938847
18329,143,-0.09266,-0.09266,0.13899,0.23166,1561,2,1,0,0,2,1,0,0,0,-0.09266,0,0,1,1,1,0,0,1,1,0,1,1,"o10",0.415007555200034,0.000000000000000000000281089422938847
18329,79,-0.09266,-0.09266,0.04633,0.139,1709,1,1,270,90,1,0,9999,9999,0,-0.09266,2,0,1,2,0,0,1,1,1,2,0,1,"o10",0.415007555200034,0.000000000000000000000281089422938847
18329,110,-0.09266,-0.09266,-0.139,-0.04633,4055,2,1,270,270,2,0,9999,9999,0,-0.09266,2,0,1,2,0,0,1,1,1,2,0,1,"o10",0.415007555200034,0.000000000000000000000281089422938847
18329,95,-0.09266,-0.09266,-0.41699,-0.32432,1089,2,2,90,270,0,1,270,90,0,-0.09266,1,0,0,0,0,1,0,1,1,3,1,0,"o10",0.415007555200034,0.000000000000000000000281089422938847
18329,1,-0.04633,-0.04633,0.04633,0.09266,3920,4,2,90,0,0,0,9999,9999,0,-0.04633,2,1,1,2,0,0,1,1,1,2,0,1,"o10",0.415007555200034,0.000000000000000000000281089422938847
18329,140,-0.04633,-0.04633,0,0.04633,1402,4,2,0,180,0,1,180,0,0,-0.04633,0,1,0,0,0,1,0,1,1,3,1,0,"o10",0.415007555200034,0.000000000000000000000281089422938847
18329,140,-0.04633,-0.04633,0,0.04633,1402,4,2,0,180,0,1,180,0,0,-0.04633,0,1,0,0,0,1,0,1,1,3,1,0,"o10",0.415007555200034,0.000000000000000000000281089422938847
18329,70,-0.04633,-0.04633,-0.04633,0,1486,3,2,90,180,2,0,9999,9999,0,-0.04633,2,1,1,2,0,0,1,1,1,2,0,1,"o10",0.415007555200034,0.000000000000000000000281089422938847
18329,137,-0.04633,-0.04633,-0.04633,0,1073,4,2,270,270,2,1,270,270,0,-0.04633,1,1,1,1,1,0,0,1,1,1,1,1,"o10",0.415007555200034,0.000000000000000000000281089422938847
18329,7,-0.04633,-0.04633,-0.18533,-0.139,1737,2,1,90,90,0,1,90,90,0,-0.04633,1,0,1,1,1,0,0,1,1,1,1,1,"o10",0.415007555200034,0.000000000000000000000281089422938847
18329,21,-0.04633,-0.04633,-0.18533,-0.139,3569,1,2,0,180,1,1,180,0,0,-0.04633,0,0,0,0,0,1,0,1,1,3,1,0,"o10",0.415007555200034,0.000000000000000000000281089422938847
18329,36,-0.04633,-0.04633,-0.18533,-0.139,1331,2,2,90,180,2,1,180,90,0,-0.04633,0,0,0,0,0,1,0,1,1,3,1,0,"o10",0.415007555200034,0.000000000000000000000281089422938847
18329,74,-0.04633,-0.04633,-0.23166,-0.18533,2421,2,1,270,180,1,1,270,180,0,-0.04633,1,0,0,0,0,1,0,1,1,3,1,0,"o10",0.415007555200034,0.000000000000000000000281089422938847
18329,27,-0.04633,-0.04633,-0.27799,-0.23166,1318,2,2,180,270,1,0,9999,9999,0,-0.04633,2,0,1,2,0,0,1,1,1,2,0,1,"o10",0.415007555200034,0.000000000000000000000281089422938847
18329,130,-0.04633,-0.04633,-0.37066,-0.32432,1919,4,1,270,90,2,1,270,90,0,-0.04633,1,1,0,0,0,1,0,1,1,3,1,0,"o10",0.415007555200034,0.000000000000000000000281089422938847
18329,75,-0.04633,-0.04633,-0.50965,-0.46332,3185,2,1,270,0,2,1,270,0,0,-0.04633,1,0,0,0,0,1,0,1,1,3,1,0,"o10",0.415007555200034,0.000000000000000000000281089422938847
18329,76,0,0,0.41699,0.41699,1549,4,2,0,0,1,1,0,0,0,0,0,1,1,1,1,0,0,1,1,0,1,1,"o10",0.415007555200034,0.000000000000000000000281089422938847
18329,73,0,0,0.32432,0.32432,1652,2,2,90,0,2,1,0,90,0,0,0,0,0,0,0,1,0,1,1,3,1,0,"o10",0.415007555200034,0.000000000000000000000281089422938847
18329,107,0,0,0.09266,0.09266,5492,3,2,90,0,2,1,0,90,0,0,0,1,0,0,0,1,0,1,1,3,1,0,"o10",0.415007555200034,0.000000000000000000000281089422938847
18329,29,0,0,-0.09266,-0.09266,1335,3,2,180,180,1,1,180,180,0,0,0,1,1,1,1,0,0,1,1,0,1,1,"o10",0.415007555200034,0.000000000000000000000281089422938847
18329,97,0,0,-0.139,-0.139,1371,1,2,270,270,1,1,270,270,0,0,1,0,1,1,1,0,0,1,1,1,1,1,"o10",0.415007555200034,0.000000000000000000000281089422938847
18329,70,0.04633,0.04633,0.23166,0.18533,1420,1,1,180,270,0,0,9999,9999,0,0.04633,2,0,1,2,0,0,1,1,1,2,0,1,"o10",0.415007555200034,0.000000000000000000000281089422938847
18329,34,0.04633,0.04633,0.09266,0.04633,2510,3,2,0,270,0,0,9999,9999,0,0.04633,2,1,1,2,0,0,1,1,1,2,0,1,"o10",0.415007555200034,0.000000000000000000000281089422938847
18329,3,0.04633,0.04633,0.09266,0.04633,1503,2,2,270,90,2,1,90,270,0,0.04633,1,0,0,0,0,1,0,1,1,3,1,0,"o10",0.415007555200034,0.000000000000000000000281089422938847
18329,100,0.04633,0.04633,0,-0.04633,1376,4,2,270,0,1,0,9999,9999,0,0.04633,2,1,1,2,0,0,1,1,1,2,0,1,"o10",0.415007555200034,0.000000000000000000000281089422938847
18329,120,0.04633,0.04633,0,-0.04633,2011,4,1,180,270,1,1,180,270,0,0.04633,0,1,0,0,0,1,0,1,1,3,1,0,"o10",0.415007555200034,0.000000000000000000000281089422938847
18329,120,0.04633,0.04633,0,-0.04633,2011,4,1,180,270,1,1,180,270,0,0.04633,0,1,0,0,0,1,0,1,1,3,1,0,"o10",0.415007555200034,0.000000000000000000000281089422938847
18329,41,0.04633,0.04633,-0.32432,-0.37065,1621,1,2,180,90,2,1,90,180,0,0.04633,1,0,0,0,0,1,0,1,1,3,1,0,"o10",0.415007555200034,0.000000000000000000000281089422938847
18329,22,0.09266,0.09266,0.41699,0.32432,3103,4,1,180,180,1,1,180,180,0,0.09266,0,1,1,1,1,0,0,1,1,0,1,1,"o10",0.415007555200034,0.000000000000000000000281089422938847
18329,48,0.09266,0.09266,0.09266,0,1811,4,2,0,0,0,1,0,0,0,0.09266,0,1,1,1,1,0,0,1,1,0,1,1,"o10",0.415007555200034,0.000000000000000000000281089422938847
18329,133,0.09266,0.09266,-0.09266,-0.18533,1906,2,2,180,270,1,0,9999,9999,0,0.09266,2,0,1,2,0,0,1,1,1,2,0,1,"o10",0.415007555200034,0.000000000000000000000281089422938847
18329,133,0.09266,0.09266,-0.09266,-0.18533,1906,2,2,180,270,1,0,9999,9999,0,0.09266,2,0,1,2,0,0,1,1,1,2,0,1,"o10",0.415007555200034,0.000000000000000000000281089422938847
18329,51,0.09266,0.09266,-0.18533,-0.27799,2183,4,1,90,270,0,1,90,270,0,0.09266,1,1,0,0,0,1,0,1,1,3,1,0,"o10",0.415007555200034,0.000000000000000000000281089422938847
18329,109,0.09266,0.09266,-0.23166,-0.32432,4389,1,1,0,0,2,1,0,0,0,0.09266,0,0,1,1,1,0,0,1,1,0,1,1,"o10",0.415007555200034,0.000000000000000000000281089422938847
18329,109,0.09266,0.09266,-0.32432,-0.41699,1522,4,1,270,90,0,1,270,90,0,0.09266,1,1,0,0,0,1,0,1,1,3,1,0,"o10",0.415007555200034,0.000000000000000000000281089422938847
18329,24,0.13899,0.13899,0.46332,0.32432,2004,4,1,0,90,1,1,0,90,0,0.13899,0,1,0,0,0,1,0,1,1,3,1,0,"o10",0.415007555200034,0.000000000000000000000281089422938847
18329,68,0.13899,0.13899,0.41699,0.27799,1469,2,1,270,180,1,0,9999,9999,0,0.13899,2,0,1,2,0,0,1,1,1,2,0,1,"o10",0.415007555200034,0.000000000000000000000281089422938847
18329,0,0.13899,0.13899,0.41699,0.27799,3044,2,2,90,180,2,1,180,90,0,0.13899,0,0,0,0,0,1,0,1,1,3,1,0,"o10",0.415007555200034,0.000000000000000000000281089422938847
18329,108,0.13899,0.13899,0.23166,0.09266,1646,1,1,90,0,2,1,90,0,0,0.13899,1,0,0,0,0,1,0,1,1,3,1,0,"o10",0.415007555200034,0.000000000000000000000281089422938847
18329,133,0.13899,0.13899,0,-0.139,3436,4,2,270,270,2,0,9999,9999,0,0.13899,2,1,1,2,0,0,1,1,1,2,0,1,"o10",0.415007555200034,0.000000000000000000000281089422938847
18329,119,0.13899,0.13899,-0.09266,-0.23166,1476,2,2,270,0,0,0,9999,9999,0,0.13899,2,0,1,2,0,0,1,1,1,2,0,1,"o10",0.415007555200034,0.000000000000000000000281089422938847
18329,119,0.13899,0.13899,-0.09266,-0.23166,1476,2,2,270,0,0,0,9999,9999,0,0.13899,2,0,1,2,0,0,1,1,1,2,0,1,"o10",0.415007555200034,0.000000000000000000000281089422938847
18329,37,0.18533,0.18533,0.60231,0.41699,2852,1,2,270,180,1,1,180,270,0,0.18533,0,0,0,0,0,1,0,1,1,3,1,0,"o10",0.415007555200034,0.000000000000000000000281089422938847
18329,105,0.18533,0.18533,0.50965,0.32432,1952,2,2,180,180,1,1,180,180,0,0.18533,0,0,1,1,1,0,0,1,1,0,1,1,"o10",0.415007555200034,0.000000000000000000000281089422938847
18329,91,0.18533,0.18533,0.37065,0.18533,3705,2,1,180,0,1,1,180,0,0,0.18533,0,0,0,0,0,1,0,1,1,3,1,0,"o10",0.415007555200034,0.000000000000000000000281089422938847
18329,138,0.18533,0.18533,0.32432,0.139,1827,1,1,90,270,1,1,90,270,0,0.18533,1,0,0,0,0,1,0,1,1,3,1,0,"o10",0.415007555200034,0.000000000000000000000281089422938847
18329,138,0.18533,0.18533,0.32432,0.139,1827,1,1,90,270,1,1,90,270,0,0.18533,1,0,0,0,0,1,0,1,1,3,1,0,"o10",0.415007555200034,0.000000000000000000000281089422938847
18329,90,0.18533,0.18533,0.04633,-0.139,2136,2,1,270,180,0,0,9999,9999,0,0.18533,2,0,1,2,0,0,1,1,1,2,0,1,"o10",0.415007555200034,0.000000000000000000000281089422938847
18329,35,0.18533,0.18533,0,-0.18533,1535,3,1,0,180,2,0,9999,9999,0,0.18533,2,1,1,2,0,0,1,1,1,2,0,1,"o10",0.415007555200034,0.000000000000000000000281089422938847
18329,46,0.18533,0.18533,-0.23166,-0.41699,2399,1,1,180,270,0,1,180,270,0,0.18533,0,0,0,0,0,1,0,1,1,3,1,0,"o10",0.415007555200034,0.000000000000000000000281089422938847
18329,85,0.18533,0.18533,-0.23166,-0.41699,2436,4,2,90,270,2,1,270,90,0,0.18533,1,1,0,0,0,1,0,1,1,3,1,0,"o10",0.415007555200034,0.000000000000000000000281089422938847
18329,113,0.23166,0.23166,0.50965,0.27799,1967,3,1,0,0,1,1,0,0,0,0.23166,0,1,1,1,1,0,0,1,1,0,1,1,"o10",0.415007555200034,0.000000000000000000000281089422938847
18329,135,0.23166,0.23166,0.37065,0.139,1141,2,1,0,180,0,0,9999,9999,0,0.23166,2,0,1,2,0,0,1,1,1,2,0,1,"o10",0.415007555200034,0.000000000000000000000281089422938847
18329,135,0.23166,0.23166,0.37065,0.139,1141,2,1,0,180,0,0,9999,9999,0,0.23166,2,0,1,2,0,0,1,1,1,2,0,1,"o10",0.415007555200034,0.000000000000000000000281089422938847
18329,51,0.23166,0.23166,-0.09266,-0.32432,1171,4,2,180,0,1,0,9999,9999,0,0.23166,2,1,1,2,0,0,1,1,1,2,0,1,"o10",0.415007555200034,0.000000000000000000000281089422938847
18329,53,0.23166,0.23166,-0.09266,-0.32432,1485,3,1,0,270,2,0,9999,9999,0,0.23166,2,1,1,2,0,0,1,1,1,2,0,1,"o10",0.415007555200034,0.000000000000000000000281089422938847
18329,6,0.23166,0.23166,-0.27799,-0.50965,2087,2,1,90,90,0,1,90,90,0,0.23166,1,0,1,1,1,0,0,1,1,1,1,1,"o10",0.415007555200034,0.000000000000000000000281089422938847
18329,78,0.27799,0.27799,0.37065,0.09266,2417,3,1,0,270,0,1,0,270,0,0.27799,0,1,0,0,0,1,0,1,1,3,1,0,"o10",0.415007555200034,0.000000000000000000000281089422938847
18329,59,0.27799,0.27799,0,-0.27799,1738,4,1,180,0,1,0,9999,9999,0,0.27799,2,1,1,2,0,0,1,1,1,2,0,1,"o10",0.415007555200034,0.000000000000000000000281089422938847
18329,135,0.27799,0.27799,-0.09266,-0.37065,1488,2,1,90,180,1,1,90,180,0,0.27799,1,0,0,0,0,1,0,1,1,3,1,0,"o10",0.415007555200034,0.000000000000000000000281089422938847
18329,135,0.27799,0.27799,-0.09266,-0.37065,1488,2,1,90,180,1,1,90,180,0,0.27799,1,0,0,0,0,1,0,1,1,3,1,0,"o10",0.415007555200034,0.000000000000000000000281089422938847
18329,81,0.27799,0.27799,-0.139,-0.41699,2436,2,1,270,0,0,0,9999,9999,0,0.27799,2,0,1,2,0,0,1,1,1,2,0,1,"o10",0.415007555200034,0.000000000000000000000281089422938847
18329,39,0.27799,0.27799,-0.37066,-0.64865,1072,1,2,0,180,1,0,9999,9999,0,0.27799,2,0,1,2,0,0,1,1,1,2,0,1,"o10",0.415007555200034,0.000000000000000000000281089422938847
18329,59,0.32432,0.32432,0.46332,0.139,1686,2,1,180,270,0,1,180,270,0,0.32432,0,0,0,0,0,1,0,1,1,3,1,0,"o10",0.415007555200034,0.000000000000000000000281089422938847
18329,141,0.32432,0.32432,0.41699,0.09266,3544,1,2,90,270,0,0,9999,9999,0,0.32432,2,0,1,2,0,0,1,1,1,2,0,1,"o10",0.415007555200034,0.000000000000000000000281089422938847
18329,141,0.32432,0.32432,0.41699,0.09266,3544,1,2,90,270,0,0,9999,9999,0,0.32432,2,0,1,2,0,0,1,1,1,2,0,1,"o10",0.415007555200034,0.000000000000000000000281089422938847
18329,70,0.32432,0.32432,0.41699,0.09266,1469,1,1,180,180,1,1,180,180,0,0.32432,0,0,1,1,1,0,0,1,1,0,1,1,"o10",0.415007555200034,0.000000000000000000000281089422938847
18329,58,0.32432,0.32432,-0.139,-0.46332,1695,4,1,270,180,2,0,9999,9999,0,0.32432,2,1,1,2,0,0,1,1,1,2,0,1,"o10",0.415007555200034,0.000000000000000000000281089422938847
18329,112,0.32432,0.32432,-0.18533,-0.50965,1782,2,1,270,0,1,1,270,0,0,0.32432,1,0,0,0,0,1,0,1,1,3,1,0,"o10",0.415007555200034,0.000000000000000000000281089422938847
18329,8,0.32432,0.32432,-0.18533,-0.50965,1189,4,1,180,90,2,1,180,90,0,0.32432,0,1,0,0,0,1,0,1,1,3,1,0,"o10",0.415007555200034,0.000000000000000000000281089422938847
18329,97,0.32432,0.32432,-0.23166,-0.55598,1844,3,2,90,0,0,0,9999,9999,0,0.32432,2,1,1,2,0,0,1,1,1,2,0,1,"o10",0.415007555200034,0.000000000000000000000281089422938847
18329,2,0.32432,0.32432,-0.46332,-0.78764,1117,2,2,0,270,2,1,270,0,0,0.32432,1,0,0,0,0,1,0,1,1,3,1,0,"o10",0.415007555200034,0.000000000000000000000281089422938847
18329,103,0.37065,0.37065,0.46332,0.09266,3768,2,2,90,180,2,1,180,90,0,0.37065,0,0,0,0,0,1,0,1,1,3,1,0,"o10",0.415007555200034,0.000000000000000000000281089422938847
18329,54,0.37065,0.37065,0.41699,0.04633,1399,3,1,180,180,2,1,180,180,0,0.37065,0,1,1,1,1,0,0,1,1,0,1,1,"o10",0.415007555200034,0.000000000000000000000281089422938847
18329,142,0.37065,0.37065,0.32432,-0.04633,1954,2,2,90,90,1,1,90,90,0,0.37065,1,0,1,1,1,0,0,1,1,1,1,1,"o10",0.415007555200034,0.000000000000000000000281089422938847
18329,142,0.37065,0.37065,0.32432,-0.04633,1954,2,2,90,90,1,1,90,90,0,0.37065,1,0,1,1,1,0,0,1,1,1,1,1,"o10",0.415007555200034,0.000000000000000000000281089422938847
18329,34,0.37065,0.37065,0.04633,-0.32432,2238,4,1,90,270,1,0,9999,9999,0,0.37065,2,1,1,2,0,0,1,1,1,2,0,1,"o10",0.415007555200034,0.000000000000000000000281089422938847
18329,119,0.41699,0.41699,0.50965,0.09266,1960,1,2,0,180,1,1,180,0,0,0.41699,0,0,0,0,0,1,0,1,1,3,1,0,"o10",0.415007555200034,0.000000000000000000000281089422938847
18329,119,0.41699,0.41699,0.50965,0.09266,1960,1,2,0,180,1,1,180,0,0,0.41699,0,0,0,0,0,1,0,1,1,3,1,0,"o10",0.415007555200034,0.000000000000000000000281089422938847
18329,47,0.41699,0.41699,0.27799,-0.139,1862,2,1,0,90,1,0,9999,9999,0,0.41699,2,0,1,2,0,0,1,1,1,2,0,1,"o10",0.415007555200034,0.000000000000000000000281089422938847
18329,24,0.41699,0.41699,0.09266,-0.32432,2425,2,1,270,0,0,1,270,0,0,0.41699,1,0,0,0,0,1,0,1,1,3,1,0,"o10",0.415007555200034,0.000000000000000000000281089422938847
18329,9,0.41699,0.41699,0.09266,-0.32432,3475,1,1,270,270,2,0,9999,9999,0,0.41699,2,0,1,2,0,0,1,1,1,2,0,1,"o10",0.415007555200034,0.000000000000000000000281089422938847
18329,112,0.41699,0.41699,0.09266,-0.32432,2031,1,1,90,0,2,1,90,0,0,0.41699,1,0,0,0,0,1,0,1,1,3,1,0,"o10",0.415007555200034,0.000000000000000000000281089422938847
18329,64,0.41699,0.41699,-0.37066,-0.78764,2198,1,1,0,0,1,1,0,0,0,0.41699,0,0,1,1,1,0,0,1,1,0,1,1,"o10",0.415007555200034,0.000000000000000000000281089422938847
18329,93,0.46332,0.46332,0.60231,0.139,2944,4,1,180,270,2,1,180,270,0,0.46332,0,1,0,0,0,1,0,1,1,3,1,0,"o10",0.415007555200034,0.000000000000000000000281089422938847
18329,13,0.46332,0.46332,0.55598,0.09266,2526,1,2,270,180,1,1,180,270,0,0.46332,0,0,0,0,0,1,0,1,1,3,1,0,"o10",0.415007555200034,0.000000000000000000000281089422938847
18329,52,0.46332,0.46332,0.27799,-0.18533,1319,1,1,90,180,2,0,9999,9999,0,0.46332,2,0,1,2,0,0,1,1,1,2,0,1,"o10",0.415007555200034,0.000000000000000000000281089422938847
18329,6,0.46332,0.46332,0.18533,-0.27799,4013,3,2,180,90,1,1,90,180,0,0.46332,1,1,0,0,0,1,0,1,1,3,1,0,"o10",0.415007555200034,0.000000000000000000000281089422938847
18329,79,0.46332,0.46332,-0.04633,-0.50965,2958,2,2,180,180,0,0,9999,9999,0,0.46332,2,0,1,2,0,0,1,1,1,2,0,1,"o10",0.415007555200034,0.000000000000000000000281089422938847
18329,35,0.46332,0.46332,-0.09266,-0.55598,2326,1,1,0,270,0,1,0,270,0,0.46332,0,0,0,0,0,1,0,1,1,3,1,0,"o10",0.415007555200034,0.000000000000000000000281089422938847
19249,51,-0.46332,-0.46332,0.41699,0.8803,2250,2,1,0,0,0,1,0,0,0,-0.46332,0,0,1,1,1,0,0,1,1,0,1,1,"o100",0.767720948953242,0.0000000000000000000000000000000000000000000000000000000000000000000000000000000000000000000000000164472413667656
19249,80,-0.46332,-0.46332,-0.41699,0.04633,2628,4,2,0,0,0,0,9999,9999,0,-0.46332,2,1,1,2,0,0,1,1,1,2,0,1,"o100",0.767720948953242,0.0000000000000000000000000000000000000000000000000000000000000000000000000000000000000000000000000164472413667656
19249,100,-0.46332,-0.46332,-0.41699,0.04633,2409,1,2,90,0,1,1,0,90,0,-0.46332,0,0,0,0,0,1,0,1,1,3,1,0,"o100",0.767720948953242,0.0000000000000000000000000000000000000000000000000000000000000000000000000000000000000000000000000164472413667656
19249,89,-0.46332,-0.46332,-0.41699,0.04633,1432,1,2,0,90,2,1,90,0,0,-0.46332,1,0,0,0,0,1,0,1,1,3,1,0,"o100",0.767720948953242,0.0000000000000000000000000000000000000000000000000000000000000000000000000000000000000000000000000164472413667656
19249,61,-0.46332,-0.46332,-0.46332,0,1834,4,1,90,90,2,1,90,90,0,-0.46332,1,1,1,1,1,0,0,1,1,1,1,1,"o100",0.767720948953242,0.0000000000000000000000000000000000000000000000000000000000000000000000000000000000000000000000000164472413667656
19249,39,-0.46332,-0.46332,-0.50965,-0.04633,1762,3,1,90,270,1,1,90,270,0,-0.46332,1,1,0,0,0,1,0,1,1,3,1,0,"o100",0.767720948953242,0.0000000000000000000000000000000000000000000000000000000000000000000000000000000000000000000000000164472413667656
19249,41,-0.46332,-0.46332,-0.55598,-0.09266,1584,2,2,90,270,1,1,270,90,0,-0.46332,1,0,0,0,0,1,0,1,1,3,1,0,"o100",0.767720948953242,0.0000000000000000000000000000000000000000000000000000000000000000000000000000000000000000000000000164472413667656
19249,52,-0.41699,-0.41699,-0.32432,0.09266,1389,3,1,270,180,2,1,270,180,0,-0.41699,1,1,0,0,0,1,0,1,1,3,1,0,"o100",0.767720948953242,0.0000000000000000000000000000000000000000000000000000000000000000000000000000000000000000000000000164472413667656
19249,37,-0.41699,-0.41699,-0.37066,0.04633,1546,2,2,270,90,1,1,90,270,0,-0.41699,1,0,0,0,0,1,0,1,1,3,1,0,"o100",0.767720948953242,0.0000000000000000000000000000000000000000000000000000000000000000000000000000000000000000000000000164472413667656
19249,68,-0.41699,-0.41699,-0.37066,0.04633,1404,1,2,180,270,2,1,270,180,0,-0.41699,1,0,0,0,0,1,0,1,1,3,1,0,"o100",0.767720948953242,0.0000000000000000000000000000000000000000000000000000000000000000000000000000000000000000000000000164472413667656
19249,126,-0.41699,-0.41699,-0.41699,0,2331,2,1,180,270,0,1,180,270,0,-0.41699,0,0,0,0,0,1,0,1,1,3,1,0,"o100",0.767720948953242,0.0000000000000000000000000000000000000000000000000000000000000000000000000000000000000000000000000164472413667656
19249,126,-0.41699,-0.41699,-0.41699,0,2331,2,1,180,270,0,1,180,270,0,-0.41699,0,0,0,0,0,1,0,1,1,3,1,0,"o100",0.767720948953242,0.0000000000000000000000000000000000000000000000000000000000000000000000000000000000000000000000000164472413667656
19249,44,-0.41699,-0.41699,-0.41699,0,2065,2,2,270,270,1,1,270,270,0,-0.41699,1,0,1,1,1,0,0,1,1,1,1,1,"o100",0.767720948953242,0.0000000000000000000000000000000000000000000000000000000000000000000000000000000000000000000000000164472413667656
19249,114,-0.41699,-0.41699,-0.41699,0,1567,2,2,270,270,2,1,270,270,0,-0.41699,1,0,1,1,1,0,0,1,1,1,1,1,"o100",0.767720948953242,0.0000000000000000000000000000000000000000000000000000000000000000000000000000000000000000000000000164472413667656
19249,122,-0.41699,-0.41699,-0.46332,-0.04633,2568,1,2,90,270,0,1,270,90,0,-0.41699,1,0,0,0,0,1,0,1,1,3,1,0,"o100",0.767720948953242,0.0000000000000000000000000000000000000000000000000000000000000000000000000000000000000000000000000164472413667656
19249,122,-0.41699,-0.41699,-0.46332,-0.04633,2568,1,2,90,270,0,1,270,90,0,-0.41699,1,0,0,0,0,1,0,1,1,3,1,0,"o100",0.767720948953242,0.0000000000000000000000000000000000000000000000000000000000000000000000000000000000000000000000000164472413667656
19249,52,-0.41699,-0.41699,-0.46332,-0.04633,1462,1,2,90,270,1,0,9999,9999,0,-0.41699,2,0,1,2,0,0,1,1,1,2,0,1,"o100",0.767720948953242,0.0000000000000000000000000000000000000000000000000000000000000000000000000000000000000000000000000164472413667656
19249,102,-0.41699,-0.41699,-0.46332,-0.04633,1607,4,2,0,270,1,1,270,0,0,-0.41699,1,1,0,0,0,1,0,1,1,3,1,0,"o100",0.767720948953242,0.0000000000000000000000000000000000000000000000000000000000000000000000000000000000000000000000000164472413667656
19249,130,-0.41699,-0.41699,-0.46332,-0.04633,1493,3,2,90,180,2,1,180,90,0,-0.41699,0,1,0,0,0,1,0,1,1,3,1,0,"o100",0.767720948953242,0.0000000000000000000000000000000000000000000000000000000000000000000000000000000000000000000000000164472413667656
19249,85,-0.41699,-0.41699,-0.50965,-0.09266,2036,1,1,270,270,1,1,270,270,0,-0.41699,1,0,1,1,1,0,0,1,1,1,1,1,"o100",0.767720948953242,0.0000000000000000000000000000000000000000000000000000000000000000000000000000000000000000000000000164472413667656
19249,143,-0.37066,-0.37066,0.23166,0.60231,6414,3,2,0,90,2,0,9999,9999,0,-0.37066,2,1,1,2,0,0,1,1,1,2,0,1,"o100",0.767720948953242,0.0000000000000000000000000000000000000000000000000000000000000000000000000000000000000000000000000164472413667656
19249,1,-0.37066,-0.37066,0.09266,0.46332,2704,2,2,180,90,0,1,90,180,0,-0.37066,1,0,0,0,0,1,0,1,1,3,1,0,"o100",0.767720948953242,0.0000000000000000000000000000000000000000000000000000000000000000000000000000000000000000000000000164472413667656
19249,138,-0.37066,-0.37066,0,0.37065,2826,4,2,0,0,0,1,0,0,0,-0.37066,0,1,1,1,1,0,0,1,1,0,1,1,"o100",0.767720948953242,0.0000000000000000000000000000000000000000000000000000000000000000000000000000000000000000000000000164472413667656
19249,138,-0.37066,-0.37066,0,0.37065,2826,4,2,0,0,0,1,0,0,0,-0.37066,0,1,1,1,1,0,0,1,1,0,1,1,"o100",0.767720948953242,0.0000000000000000000000000000000000000000000000000000000000000000000000000000000000000000000000000164472413667656
19249,62,-0.37066,-0.37066,-0.27799,0.09266,1632,3,2,180,270,1,1,270,180,0,-0.37066,1,1,0,0,0,1,0,1,1,3,1,0,"o100",0.767720948953242,0.0000000000000000000000000000000000000000000000000000000000000000000000000000000000000000000000000164472413667656
19249,38,-0.37066,-0.37066,-0.32432,0.04633,2153,2,1,90,270,0,1,90,270,0,-0.37066,1,0,0,0,0,1,0,1,1,3,1,0,"o100",0.767720948953242,0.0000000000000000000000000000000000000000000000000000000000000000000000000000000000000000000000000164472413667656
19249,30,-0.37066,-0.37066,-0.32432,0.04633,3576,3,2,90,90,1,1,90,90,0,-0.37066,1,1,1,1,1,0,0,1,1,1,1,1,"o100",0.767720948953242,0.0000000000000000000000000000000000000000000000000000000000000000000000000000000000000000000000000164472413667656
19249,103,-0.37066,-0.37066,-0.32432,0.04633,1341,3,1,180,90,2,1,180,90,0,-0.37066,0,1,0,0,0,1,0,1,1,3,1,0,"o100",0.767720948953242,0.0000000000000000000000000000000000000000000000000000000000000000000000000000000000000000000000000164472413667656
19249,123,-0.37066,-0.37066,-0.41699,-0.04633,2623,4,1,270,270,0,1,270,270,0,-0.37066,1,1,1,1,1,0,0,1,1,1,1,1,"o100",0.767720948953242,0.0000000000000000000000000000000000000000000000000000000000000000000000000000000000000000000000000164472413667656
19249,123,-0.37066,-0.37066,-0.41699,-0.04633,2623,4,1,270,270,0,1,270,270,0,-0.37066,1,1,1,1,1,0,0,1,1,1,1,1,"o100",0.767720948953242,0.0000000000000000000000000000000000000000000000000000000000000000000000000000000000000000000000000164472413667656
19249,81,-0.37066,-0.37066,-0.41699,-0.04633,1656,1,2,90,180,1,0,9999,9999,0,-0.37066,2,0,1,2,0,0,1,1,1,2,0,1,"o100",0.767720948953242,0.0000000000000000000000000000000000000000000000000000000000000000000000000000000000000000000000000164472413667656
19249,117,-0.37066,-0.37066,-0.41699,-0.04633,1777,3,2,270,0,1,1,0,270,0,-0.37066,0,1,0,0,0,1,0,1,1,3,1,0,"o100",0.767720948953242,0.0000000000000000000000000000000000000000000000000000000000000000000000000000000000000000000000000164472413667656
19249,117,-0.37066,-0.37066,-0.41699,-0.04633,1777,3,2,270,0,1,1,0,270,0,-0.37066,0,1,0,0,0,1,0,1,1,3,1,0,"o100",0.767720948953242,0.0000000000000000000000000000000000000000000000000000000000000000000000000000000000000000000000000164472413667656
19249,91,-0.32432,-0.32432,-0.32432,0,3026,4,1,0,0,0,1,0,0,0,-0.32432,0,1,1,1,1,0,0,1,1,0,1,1,"o100",0.767720948953242,0.0000000000000000000000000000000000000000000000000000000000000000000000000000000000000000000000000164472413667656
19249,31,-0.32432,-0.32432,-0.32432,0,1430,3,2,0,90,1,0,9999,9999,0,-0.32432,2,1,1,2,0,0,1,1,1,2,0,1,"o100",0.767720948953242,0.0000000000000000000000000000000000000000000000000000000000000000000000000000000000000000000000000164472413667656
19249,36,-0.32432,-0.32432,-0.32432,0,3085,3,2,180,180,1,1,180,180,0,-0.32432,0,1,1,1,1,0,0,1,1,0,1,1,"o100",0.767720948953242,0.0000000000000000000000000000000000000000000000000000000000000000000000000000000000000000000000000164472413667656
19249,129,-0.32432,-0.32432,-0.37066,-0.04633,2460,3,2,0,0,0,1,0,0,0,-0.32432,0,1,1,1,1,0,0,1,1,0,1,1,"o100",0.767720948953242,0.0000000000000000000000000000000000000000000000000000000000000000000000000000000000000000000000000164472413667656
19249,129,-0.32432,-0.32432,-0.37066,-0.04633,2460,3,2,0,0,0,1,0,0,0,-0.32432,0,1,1,1,1,0,0,1,1,0,1,1,"o100",0.767720948953242,0.0000000000000000000000000000000000000000000000000000000000000000000000000000000000000000000000000164472413667656
19249,74,-0.32432,-0.32432,-0.37066,-0.04633,1409,3,2,90,90,1,1,90,90,0,-0.32432,1,1,1,1,1,0,0,1,1,1,1,1,"o100",0.767720948953242,0.0000000000000000000000000000000000000000000000000000000000000000000000000000000000000000000000000164472413667656
19249,91,-0.32432,-0.32432,-0.46332,-0.139,1783,3,2,90,270,1,1,270,90,0,-0.32432,1,1,0,0,0,1,0,1,1,3,1,0,"o100",0.767720948953242,0.0000000000000000000000000000000000000000000000000000000000000000000000000000000000000000000000000164472413667656
19249,21,-0.27799,-0.27799,0,0.27799,2166,1,1,0,0,0,0,9999,9999,0,-0.27799,2,0,1,2,0,0,1,1,1,2,0,1,"o100",0.767720948953242,0.0000000000000000000000000000000000000000000000000000000000000000000000000000000000000000000000000164472413667656
19249,133,-0.27799,-0.27799,-0.139,0.139,4636,3,2,270,270,0,1,270,270,0,-0.27799,1,1,1,1,1,0,0,1,1,1,1,1,"o100",0.767720948953242,0.0000000000000000000000000000000000000000000000000000000000000000000000000000000000000000000000000164472413667656
19249,133,-0.27799,-0.27799,-0.139,0.139,4636,3,2,270,270,0,1,270,270,0,-0.27799,1,1,1,1,1,0,0,1,1,1,1,1,"o100",0.767720948953242,0.0000000000000000000000000000000000000000000000000000000000000000000000000000000000000000000000000164472413667656
19249,55,-0.27799,-0.27799,-0.23166,0.04633,2417,1,2,90,180,0,1,180,90,0,-0.27799,0,0,0,0,0,1,0,1,1,3,1,0,"o100",0.767720948953242,0.0000000000000000000000000000000000000000000000000000000000000000000000000000000000000000000000000164472413667656
19249,62,-0.27799,-0.27799,-0.37066,-0.09266,3000,3,2,0,90,0,1,90,0,0,-0.27799,1,1,0,0,0,1,0,1,1,3,1,0,"o100",0.767720948953242,0.0000000000000000000000000000000000000000000000000000000000000000000000000000000000000000000000000164472413667656
19249,124,-0.27799,-0.27799,-0.41699,-0.139,1586,4,2,180,270,1,0,9999,9999,0,-0.27799,2,1,1,2,0,0,1,1,1,2,0,1,"o100",0.767720948953242,0.0000000000000000000000000000000000000000000000000000000000000000000000000000000000000000000000000164472413667656
19249,126,-0.27799,-0.27799,-0.41699,-0.139,1456,3,2,270,90,1,1,90,270,0,-0.27799,1,1,0,0,0,1,0,1,1,3,1,0,"o100",0.767720948953242,0.0000000000000000000000000000000000000000000000000000000000000000000000000000000000000000000000000164472413667656
19249,124,-0.27799,-0.27799,-0.41699,-0.139,1586,4,2,180,270,1,0,9999,9999,0,-0.27799,2,1,1,2,0,0,1,1,1,2,0,1,"o100",0.767720948953242,0.0000000000000000000000000000000000000000000000000000000000000000000000000000000000000000000000000164472413667656
19249,126,-0.27799,-0.27799,-0.41699,-0.139,1456,3,2,270,90,1,1,90,270,0,-0.27799,1,1,0,0,0,1,0,1,1,3,1,0,"o100",0.767720948953242,0.0000000000000000000000000000000000000000000000000000000000000000000000000000000000000000000000000164472413667656
19249,123,-0.27799,-0.27799,-0.41699,-0.139,2719,4,1,270,0,2,1,270,0,0,-0.27799,1,1,0,0,0,1,0,1,1,3,1,0,"o100",0.767720948953242,0.0000000000000000000000000000000000000000000000000000000000000000000000000000000000000000000000000164472413667656
19249,98,-0.23166,-0.23166,-0.18533,0.04633,1659,3,1,270,0,2,0,9999,9999,0,-0.23166,2,1,1,2,0,0,1,1,1,2,0,1,"o100",0.767720948953242,0.0000000000000000000000000000000000000000000000000000000000000000000000000000000000000000000000000164472413667656
19249,19,-0.23166,-0.23166,-0.23166,0,1612,3,1,90,0,1,1,90,0,0,-0.23166,1,1,0,0,0,1,0,1,1,3,1,0,"o100",0.767720948953242,0.0000000000000000000000000000000000000000000000000000000000000000000000000000000000000000000000000164472413667656
19249,5,-0.23166,-0.23166,-0.32432,-0.09266,2781,1,1,0,90,2,1,0,90,0,-0.23166,0,0,0,0,0,1,0,1,1,3,1,0,"o100",0.767720948953242,0.0000000000000000000000000000000000000000000000000000000000000000000000000000000000000000000000000164472413667656
19249,108,-0.23166,-0.23166,-0.32432,-0.09266,1446,3,1,270,0,2,1,270,0,0,-0.23166,1,1,0,0,0,1,0,1,1,3,1,0,"o100",0.767720948953242,0.0000000000000000000000000000000000000000000000000000000000000000000000000000000000000000000000000164472413667656
19249,103,-0.23166,-0.23166,-0.37066,-0.139,2894,4,2,270,180,0,0,9999,9999,0,-0.23166,2,1,1,2,0,0,1,1,1,2,0,1,"o100",0.767720948953242,0.0000000000000000000000000000000000000000000000000000000000000000000000000000000000000000000000000164472413667656
19249,106,-0.23166,-0.23166,-0.37066,-0.139,4283,3,1,0,90,0,0,9999,9999,0,-0.23166,2,1,1,2,0,0,1,1,1,2,0,1,"o100",0.767720948953242,0.0000000000000000000000000000000000000000000000000000000000000000000000000000000000000000000000000164472413667656
19249,138,-0.23166,-0.23166,-0.37066,-0.139,1499,3,2,180,270,2,0,9999,9999,0,-0.23166,2,1,1,2,0,0,1,1,1,2,0,1,"o100",0.767720948953242,0.0000000000000000000000000000000000000000000000000000000000000000000000000000000000000000000000000164472413667656
19249,86,-0.23166,-0.23166,-0.41699,-0.18533,2456,1,2,270,0,0,1,0,270,0,-0.23166,0,0,0,0,0,1,0,1,1,3,1,0,"o100",0.767720948953242,0.0000000000000000000000000000000000000000000000000000000000000000000000000000000000000000000000000164472413667656
19249,67,-0.23166,-0.23166,-0.50965,-0.27799,2988,2,1,270,270,0,1,270,270,0,-0.23166,1,0,1,1,1,0,0,1,1,1,1,1,"o100",0.767720948953242,0.0000000000000000000000000000000000000000000000000000000000000000000000000000000000000000000000000164472413667656
19249,53,-0.18533,-0.18533,0.41699,0.60231,5374,2,1,180,0,0,0,9999,9999,0,-0.18533,2,0,1,2,0,0,1,1,1,2,0,1,"o100",0.767720948953242,0.0000000000000000000000000000000000000000000000000000000000000000000000000000000000000000000000000164472413667656
19249,113,-0.18533,-0.18533,0.04633,0.23166,1444,3,1,0,0,2,1,0,0,0,-0.18533,0,1,1,1,1,0,0,1,1,0,1,1,"o100",0.767720948953242,0.0000000000000000000000000000000000000000000000000000000000000000000000000000000000000000000000000164472413667656
19249,84,-0.18533,-0.18533,0,0.18533,2011,3,2,0,0,1,1,0,0,0,-0.18533,0,1,1,1,1,0,0,1,1,0,1,1,"o100",0.767720948953242,0.0000000000000000000000000000000000000000000000000000000000000000000000000000000000000000000000000164472413667656
19249,92,-0.18533,-0.18533,0,0.18533,2160,2,2,270,180,2,1,180,270,0,-0.18533,0,0,0,0,0,1,0,1,1,3,1,0,"o100",0.767720948953242,0.0000000000000000000000000000000000000000000000000000000000000000000000000000000000000000000000000164472413667656
19249,19,-0.18533,-0.18533,-0.27799,-0.09266,2185,2,2,90,90,2,0,9999,9999,0,-0.18533,2,0,1,2,0,0,1,1,1,2,0,1,"o100",0.767720948953242,0.0000000000000000000000000000000000000000000000000000000000000000000000000000000000000000000000000164472413667656
19249,110,-0.18533,-0.18533,-0.27799,-0.09266,1903,4,2,180,270,2,1,270,180,0,-0.18533,1,1,0,0,0,1,0,1,1,3,1,0,"o100",0.767720948953242,0.0000000000000000000000000000000000000000000000000000000000000000000000000000000000000000000000000164472413667656
19249,15,-0.18533,-0.18533,-0.32432,-0.139,8293,3,1,0,0,0,0,9999,9999,0,-0.18533,2,1,1,2,0,0,1,1,1,2,0,1,"o100",0.767720948953242,0.0000000000000000000000000000000000000000000000000000000000000000000000000000000000000000000000000164472413667656
19249,140,-0.18533,-0.18533,-0.37066,-0.18533,1470,3,1,270,180,1,0,9999,9999,0,-0.18533,2,1,1,2,0,0,1,1,1,2,0,1,"o100",0.767720948953242,0.0000000000000000000000000000000000000000000000000000000000000000000000000000000000000000000000000164472413667656
19249,140,-0.18533,-0.18533,-0.37066,-0.18533,1470,3,1,270,180,1,0,9999,9999,0,-0.18533,2,1,1,2,0,0,1,1,1,2,0,1,"o100",0.767720948953242,0.0000000000000000000000000000000000000000000000000000000000000000000000000000000000000000000000000164472413667656
19249,134,-0.18533,-0.18533,-0.41699,-0.23166,1345,4,2,180,270,2,1,270,180,0,-0.18533,1,1,0,0,0,1,0,1,1,3,1,0,"o100",0.767720948953242,0.0000000000000000000000000000000000000000000000000000000000000000000000000000000000000000000000000164472413667656
19249,28,-0.18533,-0.18533,-0.46332,-0.27799,2242,4,2,90,180,0,1,180,90,0,-0.18533,0,1,0,0,0,1,0,1,1,3,1,0,"o100",0.767720948953242,0.0000000000000000000000000000000000000000000000000000000000000000000000000000000000000000000000000164472413667656
19249,68,-0.18533,-0.18533,-0.46332,-0.27799,2925,3,1,90,90,0,1,90,90,0,-0.18533,1,1,1,1,1,0,0,1,1,1,1,1,"o100",0.767720948953242,0.0000000000000000000000000000000000000000000000000000000000000000000000000000000000000000000000000164472413667656
19249,16,-0.139,-0.139,-0.18533,-0.04633,2025,4,2,270,0,2,0,9999,9999,0,-0.139,2,1,1,2,0,0,1,1,1,2,0,1,"o100",0.767720948953242,0.0000000000000000000000000000000000000000000000000000000000000000000000000000000000000000000000000164472413667656
19249,88,-0.139,-0.139,-0.23166,-0.09266,2542,3,1,0,180,0,1,0,180,0,-0.139,0,1,0,0,0,1,0,1,1,3,1,0,"o100",0.767720948953242,0.0000000000000000000000000000000000000000000000000000000000000000000000000000000000000000000000000164472413667656
19249,40,-0.139,-0.139,-0.23166,-0.09266,1733,4,2,0,0,1,0,9999,9999,0,-0.139,2,1,1,2,0,0,1,1,1,2,0,1,"o100",0.767720948953242,0.0000000000000000000000000000000000000000000000000000000000000000000000000000000000000000000000000164472413667656
19249,70,-0.139,-0.139,-0.27799,-0.139,1544,1,2,0,0,1,1,0,0,0,-0.139,0,0,1,1,1,0,0,1,1,0,1,1,"o100",0.767720948953242,0.0000000000000000000000000000000000000000000000000000000000000000000000000000000000000000000000000164472413667656
19249,95,-0.139,-0.139,-0.27799,-0.139,2218,4,2,270,180,1,0,9999,9999,0,-0.139,2,1,1,2,0,0,1,1,1,2,0,1,"o100",0.767720948953242,0.0000000000000000000000000000000000000000000000000000000000000000000000000000000000000000000000000164472413667656
19249,65,-0.139,-0.139,-0.27799,-0.139,1720,1,1,0,180,2,0,9999,9999,0,-0.139,2,0,1,2,0,0,1,1,1,2,0,1,"o100",0.767720948953242,0.0000000000000000000000000000000000000000000000000000000000000000000000000000000000000000000000000164472413667656
19249,55,-0.139,-0.139,-0.32432,-0.18533,17750,4,1,180,180,2,1,180,180,0,-0.139,0,1,1,1,1,0,0,1,1,0,1,1,"o100",0.767720948953242,0.0000000000000000000000000000000000000000000000000000000000000000000000000000000000000000000000000164472413667656
19249,9,-0.139,-0.139,-0.37066,-0.23166,4478,1,2,0,90,0,1,90,0,0,-0.139,1,0,0,0,0,1,0,1,1,3,1,0,"o100",0.767720948953242,0.0000000000000000000000000000000000000000000000000000000000000000000000000000000000000000000000000164472413667656
19249,78,-0.09266,-0.09266,0.46332,0.55598,3246,3,1,90,90,0,1,90,90,0,-0.09266,1,1,1,1,1,0,0,1,1,1,1,1,"o100",0.767720948953242,0.0000000000000000000000000000000000000000000000000000000000000000000000000000000000000000000000000164472413667656
19249,22,-0.09266,-0.09266,0.09266,0.18533,1452,2,1,0,270,1,1,0,270,0,-0.09266,0,0,0,0,0,1,0,1,1,3,1,0,"o100",0.767720948953242,0.0000000000000000000000000000000000000000000000000000000000000000000000000000000000000000000000000164472413667656
19249,101,-0.09266,-0.09266,0.04633,0.139,2855,1,1,180,90,0,1,180,90,0,-0.09266,0,0,0,0,0,1,0,1,1,3,1,0,"o100",0.767720948953242,0.0000000000000000000000000000000000000000000000000000000000000000000000000000000000000000000000000164472413667656
19249,6,-0.09266,-0.09266,0,0.09266,1644,4,1,180,180,2,1,180,180,0,-0.09266,0,1,1,1,1,0,0,1,1,0,1,1,"o100",0.767720948953242,0.0000000000000000000000000000000000000000000000000000000000000000000000000000000000000000000000000164472413667656
19249,74,-0.09266,-0.09266,0,0.09266,1880,2,1,0,270,2,1,0,270,0,-0.09266,0,0,0,0,0,1,0,1,1,3,1,0,"o100",0.767720948953242,0.0000000000000000000000000000000000000000000000000000000000000000000000000000000000000000000000000164472413667656
19249,139,-0.09266,-0.09266,0,0.09266,1514,2,1,90,90,2,1,90,90,0,-0.09266,1,0,1,1,1,0,0,1,1,1,1,1,"o100",0.767720948953242,0.0000000000000000000000000000000000000000000000000000000000000000000000000000000000000000000000000164472413667656
19249,58,-0.09266,-0.09266,-0.37066,-0.27799,2528,3,1,270,0,1,0,9999,9999,0,-0.09266,2,1,1,2,0,0,1,1,1,2,0,1,"o100",0.767720948953242,0.0000000000000000000000000000000000000000000000000000000000000000000000000000000000000000000000000164472413667656
19249,5,-0.04633,-0.04633,0.32432,0.37065,2188,2,1,0,90,1,0,9999,9999,0,-0.04633,2,0,1,2,0,0,1,1,1,2,0,1,"o100",0.767720948953242,0.0000000000000000000000000000000000000000000000000000000000000000000000000000000000000000000000000164472413667656
19249,3,-0.04633,-0.04633,0.32432,0.37065,1352,1,1,0,270,2,1,0,270,0,-0.04633,0,0,0,0,0,1,0,1,1,3,1,0,"o100",0.767720948953242,0.0000000000000000000000000000000000000000000000000000000000000000000000000000000000000000000000000164472413667656
19249,130,-0.04633,-0.04633,0.27799,0.32432,2757,2,1,0,90,0,1,0,90,0,-0.04633,0,0,0,0,0,1,0,1,1,3,1,0,"o100",0.767720948953242,0.0000000000000000000000000000000000000000000000000000000000000000000000000000000000000000000000000164472413667656
19249,130,-0.04633,-0.04633,0.27799,0.32432,2757,2,1,0,90,0,1,0,90,0,-0.04633,0,0,0,0,0,1,0,1,1,3,1,0,"o100",0.767720948953242,0.0000000000000000000000000000000000000000000000000000000000000000000000000000000000000000000000000164472413667656
19249,140,-0.04633,-0.04633,0.09266,0.139,1444,4,1,270,180,2,0,9999,9999,0,-0.04633,2,1,1,2,0,0,1,1,1,2,0,1,"o100",0.767720948953242,0.0000000000000000000000000000000000000000000000000000000000000000000000000000000000000000000000000164472413667656
19249,77,-0.04633,-0.04633,0.04633,0.09266,1463,2,2,0,180,1,1,180,0,0,-0.04633,0,0,0,0,0,1,0,1,1,3,1,0,"o100",0.767720948953242,0.0000000000000000000000000000000000000000000000000000000000000000000000000000000000000000000000000164472413667656
19249,101,-0.04633,-0.04633,-0.09266,-0.04633,2716,2,1,180,180,2,1,180,180,0,-0.04633,0,0,1,1,1,0,0,1,1,0,1,1,"o100",0.767720948953242,0.0000000000000000000000000000000000000000000000000000000000000000000000000000000000000000000000000164472413667656
19249,8,-0.04633,-0.04633,-0.27799,-0.23166,1814,3,1,270,180,2,1,270,180,0,-0.04633,1,1,0,0,0,1,0,1,1,3,1,0,"o100",0.767720948953242,0.0000000000000000000000000000000000000000000000000000000000000000000000000000000000000000000000000164472413667656
19249,128,-0.04633,-0.04633,-0.41699,-0.37065,1534,3,2,270,270,1,1,270,270,0,-0.04633,1,1,1,1,1,0,0,1,1,1,1,1,"o100",0.767720948953242,0.0000000000000000000000000000000000000000000000000000000000000000000000000000000000000000000000000164472413667656
19249,128,-0.04633,-0.04633,-0.41699,-0.37065,1534,3,2,270,270,1,1,270,270,0,-0.04633,1,1,1,1,1,0,0,1,1,1,1,1,"o100",0.767720948953242,0.0000000000000000000000000000000000000000000000000000000000000000000000000000000000000000000000000164472413667656
19249,31,-0.04633,-0.04633,-0.50965,-0.46332,2039,3,1,180,90,0,1,180,90,0,-0.04633,0,1,0,0,0,1,0,1,1,3,1,0,"o100",0.767720948953242,0.0000000000000000000000000000000000000000000000000000000000000000000000000000000000000000000000000164472413667656
19249,127,0,0,0.37065,0.37065,1659,3,1,0,0,1,1,0,0,0,0,0,1,1,1,1,0,0,1,1,0,1,1,"o100",0.767720948953242,0.0000000000000000000000000000000000000000000000000000000000000000000000000000000000000000000000000164472413667656
19249,127,0,0,0.37065,0.37065,1659,3,1,0,0,1,1,0,0,0,0,0,1,1,1,1,0,0,1,1,0,1,1,"o100",0.767720948953242,0.0000000000000000000000000000000000000000000000000000000000000000000000000000000000000000000000000164472413667656
19249,135,0,0,0.13899,0.13899,1777,4,1,180,270,1,1,180,270,0,0,0,1,0,0,0,1,0,1,1,3,1,0,"o100",0.767720948953242,0.0000000000000000000000000000000000000000000000000000000000000000000000000000000000000000000000000164472413667656
19249,135,0,0,0.13899,0.13899,1777,4,1,180,270,1,1,180,270,0,0,0,1,0,0,0,1,0,1,1,3,1,0,"o100",0.767720948953242,0.0000000000000000000000000000000000000000000000000000000000000000000000000000000000000000000000000164472413667656
19249,3,0,0,-0.04633,-0.04633,2631,1,1,180,180,0,0,9999,9999,0,0,2,0,1,2,0,0,1,1,1,2,0,1,"o100",0.767720948953242,0.0000000000000000000000000000000000000000000000000000000000000000000000000000000000000000000000000164472413667656
19249,120,0,0,-0.09266,-0.09266,1228,4,1,90,180,2,0,9999,9999,0,0,2,1,1,2,0,0,1,1,1,2,0,1,"o100",0.767720948953242,0.0000000000000000000000000000000000000000000000000000000000000000000000000000000000000000000000000164472413667656
19249,34,0,0,-0.139,-0.139,1790,1,2,180,0,2,0,9999,9999,0,0,2,0,1,2,0,0,1,1,1,2,0,1,"o100",0.767720948953242,0.0000000000000000000000000000000000000000000000000000000000000000000000000000000000000000000000000164472413667656
19249,137,0,0,-0.18533,-0.18533,1924,1,2,180,180,1,1,180,180,0,0,0,0,1,1,1,0,0,1,1,0,1,1,"o100",0.767720948953242,0.0000000000000000000000000000000000000000000000000000000000000000000000000000000000000000000000000164472413667656
19249,137,0,0,-0.18533,-0.18533,1924,1,2,180,180,1,1,180,180,0,0,0,0,1,1,1,0,0,1,1,0,1,1,"o100",0.767720948953242,0.0000000000000000000000000000000000000000000000000000000000000000000000000000000000000000000000000164472413667656
19249,23,0,0,-0.23166,-0.23166,1480,4,2,90,270,2,1,270,90,0,0,1,1,0,0,0,1,0,1,1,3,1,0,"o100",0.767720948953242,0.0000000000000000000000000000000000000000000000000000000000000000000000000000000000000000000000000164472413667656
19249,128,0,0,-0.27799,-0.27799,2865,3,1,0,90,0,0,9999,9999,0,0,2,1,1,2,0,0,1,1,1,2,0,1,"o100",0.767720948953242,0.0000000000000000000000000000000000000000000000000000000000000000000000000000000000000000000000000164472413667656
19249,128,0,0,-0.27799,-0.27799,2865,3,1,0,90,0,0,9999,9999,0,0,2,1,1,2,0,0,1,1,1,2,0,1,"o100",0.767720948953242,0.0000000000000000000000000000000000000000000000000000000000000000000000000000000000000000000000000164472413667656
19249,120,0,0,-0.37066,-0.37066,1655,2,1,270,90,1,1,270,90,0,0,1,0,0,0,0,1,0,1,1,3,1,0,"o100",0.767720948953242,0.0000000000000000000000000000000000000000000000000000000000000000000000000000000000000000000000000164472413667656
19249,120,0,0,-0.37066,-0.37066,1655,2,1,270,90,1,1,270,90,0,0,1,0,0,0,0,1,0,1,1,3,1,0,"o100",0.767720948953242,0.0000000000000000000000000000000000000000000000000000000000000000000000000000000000000000000000000164472413667656
19249,61,0.04633,0.04633,0.46332,0.41699,2202,3,1,90,90,0,1,90,90,0,0.04633,1,1,1,1,1,0,0,1,1,1,1,1,"o100",0.767720948953242,0.0000000000000000000000000000000000000000000000000000000000000000000000000000000000000000000000000164472413667656
19249,83,0.04633,0.04633,0.27799,0.23166,3231,3,2,270,270,2,0,9999,9999,0,0.04633,2,1,1,2,0,0,1,1,1,2,0,1,"o100",0.767720948953242,0.0000000000000000000000000000000000000000000000000000000000000000000000000000000000000000000000000164472413667656
19249,63,0.04633,0.04633,0.18533,0.139,3160,4,2,270,0,1,1,0,270,0,0.04633,0,1,0,0,0,1,0,1,1,3,1,0,"o100",0.767720948953242,0.0000000000000000000000000000000000000000000000000000000000000000000000000000000000000000000000000164472413667656
19249,137,0.04633,0.04633,0,-0.04633,2102,1,1,90,270,0,0,9999,9999,0,0.04633,2,0,1,2,0,0,1,1,1,2,0,1,"o100",0.767720948953242,0.0000000000000000000000000000000000000000000000000000000000000000000000000000000000000000000000000164472413667656
19249,137,0.04633,0.04633,0,-0.04633,2102,1,1,90,270,0,0,9999,9999,0,0.04633,2,0,1,2,0,0,1,1,1,2,0,1,"o100",0.767720948953242,0.0000000000000000000000000000000000000000000000000000000000000000000000000000000000000000000000000164472413667656
19249,12,0.04633,0.04633,0,-0.04633,1289,2,2,0,90,2,1,90,0,0,0.04633,1,0,0,0,0,1,0,1,1,3,1,0,"o100",0.767720948953242,0.0000000000000000000000000000000000000000000000000000000000000000000000000000000000000000000000000164472413667656
19249,87,0.04633,0.04633,-0.09266,-0.139,2033,3,2,270,270,1,1,270,270,0,0.04633,1,1,1,1,1,0,0,1,1,1,1,1,"o100",0.767720948953242,0.0000000000000000000000000000000000000000000000000000000000000000000000000000000000000000000000000164472413667656
19249,117,0.04633,0.04633,-0.139,-0.18533,1535,3,1,0,270,2,1,0,270,0,0.04633,0,1,0,0,0,1,0,1,1,3,1,0,"o100",0.767720948953242,0.0000000000000000000000000000000000000000000000000000000000000000000000000000000000000000000000000164472413667656
19249,130,0.04633,0.04633,-0.27799,-0.32432,1713,1,1,0,270,1,0,9999,9999,0,0.04633,2,0,1,2,0,0,1,1,1,2,0,1,"o100",0.767720948953242,0.0000000000000000000000000000000000000000000000000000000000000000000000000000000000000000000000000164472413667656
19249,130,0.04633,0.04633,-0.27799,-0.32432,1713,1,1,0,270,1,0,9999,9999,0,0.04633,2,0,1,2,0,0,1,1,1,2,0,1,"o100",0.767720948953242,0.0000000000000000000000000000000000000000000000000000000000000000000000000000000000000000000000000164472413667656
19249,50,0.04633,0.04633,-0.27799,-0.32432,1461,3,1,180,0,2,1,180,0,0,0.04633,0,1,0,0,0,1,0,1,1,3,1,0,"o100",0.767720948953242,0.0000000000000000000000000000000000000000000000000000000000000000000000000000000000000000000000000164472413667656
19249,2,0.04633,0.04633,-0.32432,-0.37065,1992,4,1,180,0,1,1,180,0,0,0.04633,0,1,0,0,0,1,0,1,1,3,1,0,"o100",0.767720948953242,0.0000000000000000000000000000000000000000000000000000000000000000000000000000000000000000000000000164472413667656
19249,47,0.04633,0.04633,-0.32432,-0.37065,1737,2,2,270,90,2,0,9999,9999,0,0.04633,2,0,1,2,0,0,1,1,1,2,0,1,"o100",0.767720948953242,0.0000000000000000000000000000000000000000000000000000000000000000000000000000000000000000000000000164472413667656
19249,11,0.09266,0.09266,0.32432,0.23166,4307,4,2,180,180,0,1,180,180,0,0.09266,0,1,1,1,1,0,0,1,1,0,1,1,"o100",0.767720948953242,0.0000000000000000000000000000000000000000000000000000000000000000000000000000000000000000000000000164472413667656
19249,53,0.09266,0.09266,0.32432,0.23166,2201,4,1,270,90,2,0,9999,9999,0,0.09266,2,1,1,2,0,0,1,1,1,2,0,1,"o100",0.767720948953242,0.0000000000000000000000000000000000000000000000000000000000000000000000000000000000000000000000000164472413667656
19249,6,0.09266,0.09266,0.27799,0.18533,4166,1,1,0,270,0,1,0,270,0,0.09266,0,0,0,0,0,1,0,1,1,3,1,0,"o100",0.767720948953242,0.0000000000000000000000000000000000000000000000000000000000000000000000000000000000000000000000000164472413667656
19249,28,0.09266,0.09266,0.23166,0.139,1610,3,1,180,90,1,0,9999,9999,0,0.09266,2,1,1,2,0,0,1,1,1,2,0,1,"o100",0.767720948953242,0.0000000000000000000000000000000000000000000000000000000000000000000000000000000000000000000000000164472413667656
19249,94,0.09266,0.09266,0.13899,0.04633,2979,4,1,0,270,1,0,9999,9999,0,0.09266,2,1,1,2,0,0,1,1,1,2,0,1,"o100",0.767720948953242,0.0000000000000000000000000000000000000000000000000000000000000000000000000000000000000000000000000164472413667656
19249,0,0.09266,0.09266,0.09266,0,2557,1,1,0,90,0,1,0,90,0,0.09266,0,0,0,0,0,1,0,1,1,3,1,0,"o100",0.767720948953242,0.0000000000000000000000000000000000000000000000000000000000000000000000000000000000000000000000000164472413667656
19249,12,0.09266,0.09266,-0.09266,-0.18533,1354,1,2,90,90,1,1,90,90,0,0.09266,1,0,1,1,1,0,0,1,1,1,1,1,"o100",0.767720948953242,0.0000000000000000000000000000000000000000000000000000000000000000000000000000000000000000000000000164472413667656
19249,15,0.09266,0.09266,-0.23166,-0.32432,2418,3,1,180,270,1,1,180,270,0,0.09266,0,1,0,0,0,1,0,1,1,3,1,0,"o100",0.767720948953242,0.0000000000000000000000000000000000000000000000000000000000000000000000000000000000000000000000000164472413667656
19249,24,0.09266,0.09266,-0.37066,-0.46332,2341,3,2,270,90,0,0,9999,9999,0,0.09266,2,1,1,2,0,0,1,1,1,2,0,1,"o100",0.767720948953242,0.0000000000000000000000000000000000000000000000000000000000000000000000000000000000000000000000000164472413667656
19249,132,0.13899,0.13899,0.32432,0.18533,2448,4,1,180,0,0,1,180,0,0,0.13899,0,1,0,0,0,1,0,1,1,3,1,0,"o100",0.767720948953242,0.0000000000000000000000000000000000000000000000000000000000000000000000000000000000000000000000000164472413667656
19249,132,0.13899,0.13899,0.32432,0.18533,2448,4,1,180,0,0,1,180,0,0,0.13899,0,1,0,0,0,1,0,1,1,3,1,0,"o100",0.767720948953242,0.0000000000000000000000000000000000000000000000000000000000000000000000000000000000000000000000000164472413667656
19249,56,0.13899,0.13899,0.18533,0.04633,2720,4,1,270,0,2,1,270,0,0,0.13899,1,1,0,0,0,1,0,1,1,3,1,0,"o100",0.767720948953242,0.0000000000000000000000000000000000000000000000000000000000000000000000000000000000000000000000000164472413667656
19249,55,0.13899,0.13899,0.13899,0,1350,2,2,90,0,1,1,0,90,0,0.13899,0,0,0,0,0,1,0,1,1,3,1,0,"o100",0.767720948953242,0.0000000000000000000000000000000000000000000000000000000000000000000000000000000000000000000000000164472413667656
19249,56,0.13899,0.13899,0.04633,-0.09266,1489,3,1,270,270,1,1,270,270,0,0.13899,1,1,1,1,1,0,0,1,1,1,1,1,"o100",0.767720948953242,0.0000000000000000000000000000000000000000000000000000000000000000000000000000000000000000000000000164472413667656
19249,8,0.13899,0.13899,0,-0.139,1854,4,2,90,270,1,1,270,90,0,0.13899,1,1,0,0,0,1,0,1,1,3,1,0,"o100",0.767720948953242,0.0000000000000000000000000000000000000000000000000000000000000000000000000000000000000000000000000164472413667656
19249,36,0.13899,0.13899,-0.18533,-0.32432,1987,4,1,90,0,0,1,90,0,0,0.13899,1,1,0,0,0,1,0,1,1,3,1,0,"o100",0.767720948953242,0.0000000000000000000000000000000000000000000000000000000000000000000000000000000000000000000000000164472413667656
19249,141,0.13899,0.13899,-0.18533,-0.32432,3725,1,2,0,270,0,1,270,0,0,0.13899,1,0,0,0,0,1,0,1,1,3,1,0,"o100",0.767720948953242,0.0000000000000000000000000000000000000000000000000000000000000000000000000000000000000000000000000164472413667656
19249,141,0.13899,0.13899,-0.18533,-0.32432,3725,1,2,0,270,0,1,270,0,0,0.13899,1,0,0,0,0,1,0,1,1,3,1,0,"o100",0.767720948953242,0.0000000000000000000000000000000000000000000000000000000000000000000000000000000000000000000000000164472413667656
19249,110,0.13899,0.13899,-0.18533,-0.32432,2692,3,1,0,270,1,0,9999,9999,0,0.13899,2,1,1,2,0,0,1,1,1,2,0,1,"o100",0.767720948953242,0.0000000000000000000000000000000000000000000000000000000000000000000000000000000000000000000000000164472413667656
19249,107,0.13899,0.13899,-0.37066,-0.50965,2820,2,1,0,180,0,1,0,180,0,0.13899,0,0,0,0,0,1,0,1,1,3,1,0,"o100",0.767720948953242,0.0000000000000000000000000000000000000000000000000000000000000000000000000000000000000000000000000164472413667656
19249,14,0.18533,0.18533,0.55598,0.37065,7779,4,1,0,180,0,1,0,180,0,0.18533,0,1,0,0,0,1,0,1,1,3,1,0,"o100",0.767720948953242,0.0000000000000000000000000000000000000000000000000000000000000000000000000000000000000000000000000164472413667656
19249,29,0.18533,0.18533,0.46332,0.27799,2502,4,2,90,90,0,1,90,90,0,0.18533,1,1,1,1,1,0,0,1,1,1,1,1,"o100",0.767720948953242,0.0000000000000000000000000000000000000000000000000000000000000000000000000000000000000000000000000164472413667656
19249,56,0.18533,0.18533,0.41699,0.23166,4771,3,1,90,90,0,1,90,90,0,0.18533,1,1,1,1,1,0,0,1,1,1,1,1,"o100",0.767720948953242,0.0000000000000000000000000000000000000000000000000000000000000000000000000000000000000000000000000164472413667656
19249,21,0.18533,0.18533,0.37065,0.18533,1693,4,1,0,180,1,1,0,180,0,0.18533,0,1,0,0,0,1,0,1,1,3,1,0,"o100",0.767720948953242,0.0000000000000000000000000000000000000000000000000000000000000000000000000000000000000000000000000164472413667656
19249,93,0.18533,0.18533,0.37065,0.18533,1688,2,1,0,270,2,0,9999,9999,0,0.18533,2,0,1,2,0,0,1,1,1,2,0,1,"o100",0.767720948953242,0.0000000000000000000000000000000000000000000000000000000000000000000000000000000000000000000000000164472413667656
19249,142,0.18533,0.18533,0.27799,0.09266,1663,3,1,0,270,2,1,0,270,0,0.18533,0,1,0,0,0,1,0,1,1,3,1,0,"o100",0.767720948953242,0.0000000000000000000000000000000000000000000000000000000000000000000000000000000000000000000000000164472413667656
19249,142,0.18533,0.18533,0.09266,-0.09266,1848,1,2,270,90,0,1,90,270,0,0.18533,1,0,0,0,0,1,0,1,1,3,1,0,"o100",0.767720948953242,0.0000000000000000000000000000000000000000000000000000000000000000000000000000000000000000000000000164472413667656
19249,142,0.18533,0.18533,0.09266,-0.09266,1848,1,2,270,90,0,1,90,270,0,0.18533,1,0,0,0,0,1,0,1,1,3,1,0,"o100",0.767720948953242,0.0000000000000000000000000000000000000000000000000000000000000000000000000000000000000000000000000164472413667656
19249,82,0.18533,0.18533,0.09266,-0.09266,2397,2,1,180,0,1,1,180,0,0,0.18533,0,0,0,0,0,1,0,1,1,3,1,0,"o100",0.767720948953242,0.0000000000000000000000000000000000000000000000000000000000000000000000000000000000000000000000000164472413667656
19249,63,0.18533,0.18533,-0.04633,-0.23166,1669,3,1,90,90,2,1,90,90,0,0.18533,1,1,1,1,1,0,0,1,1,1,1,1,"o100",0.767720948953242,0.0000000000000000000000000000000000000000000000000000000000000000000000000000000000000000000000000164472413667656
19249,44,0.23166,0.23166,0.50965,0.27799,2264,4,2,90,0,0,1,0,90,0,0.23166,0,1,0,0,0,1,0,1,1,3,1,0,"o100",0.767720948953242,0.0000000000000000000000000000000000000000000000000000000000000000000000000000000000000000000000000164472413667656
19249,37,0.23166,0.23166,0.46332,0.23166,1944,3,1,0,0,0,1,0,0,0,0.23166,0,1,1,1,1,0,0,1,1,0,1,1,"o100",0.767720948953242,0.0000000000000000000000000000000000000000000000000000000000000000000000000000000000000000000000000164472413667656
19249,103,0.23166,0.23166,0.32432,0.09266,1714,2,2,0,0,1,1,0,0,0,0.23166,0,0,1,1,1,0,0,1,1,0,1,1,"o100",0.767720948953242,0.0000000000000000000000000000000000000000000000000000000000000000000000000000000000000000000000000164472413667656
19249,40,0.23166,0.23166,0.32432,0.09266,1707,4,2,90,270,2,1,270,90,0,0.23166,1,1,0,0,0,1,0,1,1,3,1,0,"o100",0.767720948953242,0.0000000000000000000000000000000000000000000000000000000000000000000000000000000000000000000000000164472413667656
19249,24,0.23166,0.23166,0.27799,0.04633,3006,3,2,180,0,1,1,0,180,0,0.23166,0,1,0,0,0,1,0,1,1,3,1,0,"o100",0.767720948953242,0.0000000000000000000000000000000000000000000000000000000000000000000000000000000000000000000000000164472413667656
19249,69,0.23166,0.23166,0.27799,0.04633,1312,3,1,180,90,2,1,180,90,0,0.23166,0,1,0,0,0,1,0,1,1,3,1,0,"o100",0.767720948953242,0.0000000000000000000000000000000000000000000000000000000000000000000000000000000000000000000000000164472413667656
19249,136,0.23166,0.23166,0.23166,0,1629,4,1,90,270,1,1,90,270,0,0.23166,1,1,0,0,0,1,0,1,1,3,1,0,"o100",0.767720948953242,0.0000000000000000000000000000000000000000000000000000000000000000000000000000000000000000000000000164472413667656
19249,136,0.23166,0.23166,0.23166,0,1629,4,1,90,270,1,1,90,270,0,0.23166,1,1,0,0,0,1,0,1,1,3,1,0,"o100",0.767720948953242,0.0000000000000000000000000000000000000000000000000000000000000000000000000000000000000000000000000164472413667656
19249,81,0.23166,0.23166,0,-0.23166,1286,3,1,180,270,2,1,180,270,0,0.23166,0,1,0,0,0,1,0,1,1,3,1,0,"o100",0.767720948953242,0.0000000000000000000000000000000000000000000000000000000000000000000000000000000000000000000000000164472413667656
19249,89,0.23166,0.23166,-0.23166,-0.46332,5977,3,1,0,180,0,1,0,180,0,0.23166,0,1,0,0,0,1,0,1,1,3,1,0,"o100",0.767720948953242,0.0000000000000000000000000000000000000000000000000000000000000000000000000000000000000000000000000164472413667656
19249,146,0.27799,0.27799,0.46332,0.18533,1944,2,1,180,90,1,1,180,90,0,0.27799,0,0,0,0,0,1,0,1,1,3,1,0,"o100",0.767720948953242,0.0000000000000000000000000000000000000000000000000000000000000000000000000000000000000000000000000164472413667656
19249,146,0.27799,0.27799,0.46332,0.18533,1944,2,1,180,90,1,1,180,90,0,0.27799,0,0,0,0,0,1,0,1,1,3,1,0,"o100",0.767720948953242,0.0000000000000000000000000000000000000000000000000000000000000000000000000000000000000000000000000164472413667656
19249,47,0.27799,0.27799,0.41699,0.139,2394,4,1,270,270,0,1,270,270,0,0.27799,1,1,1,1,1,0,0,1,1,1,1,1,"o100",0.767720948953242,0.0000000000000000000000000000000000000000000000000000000000000000000000000000000000000000000000000164472413667656
19249,34,0.27799,0.27799,0.37065,0.09266,2494,2,2,180,90,0,1,90,180,0,0.27799,1,0,0,0,0,1,0,1,1,3,1,0,"o100",0.767720948953242,0.0000000000000000000000000000000000000000000000000000000000000000000000000000000000000000000000000164472413667656
19249,111,0.27799,0.27799,0.37065,0.09266,1944,3,2,180,0,1,1,0,180,0,0.27799,0,1,0,0,0,1,0,1,1,3,1,0,"o100",0.767720948953242,0.0000000000000000000000000000000000000000000000000000000000000000000000000000000000000000000000000164472413667656
19249,42,0.27799,0.27799,0.37065,0.09266,1787,4,2,180,270,2,1,270,180,0,0.27799,1,1,0,0,0,1,0,1,1,3,1,0,"o100",0.767720948953242,0.0000000000000000000000000000000000000000000000000000000000000000000000000000000000000000000000000164472413667656
